host_monotonic_ns,host_dt_ms,sensor_ms,sensor_dt_ms,gravity_x,gravity_y,gravity_z,gravity_norm,gyro_x_dps,gyro_y_dps,gyro_z_dps,accel_x_mps2,accel_y_mps2,accel_z_mps2,qw,qx,qy,qz,roll_deg,pitch_deg,yaw_deg,temp_c
75997669096003,,35029.0,,-0.2466478,-0.07057191999999998,-0.96653388,1.0000016371612503,0.0,0.0,0.0,-2.42224255,0.6864655000000001,9.473223899999999,-0.6465,-0.1175,0.0541,-0.7519,4.176067233511821,-14.27923451904686,98.1002771729469,30.3
75997679167737,10.071734,35039.0,10.0,-0.2466478,-0.07057191999999998,-0.96653388,1.0000016371612503,0.0,0.0,0.0,-2.42224255,0.6864655000000001,9.483030549999999,-0.6465,-0.1175,0.0541,-0.7519,4.176067233511821,-14.27923451904686,98.1002771729469,30.3
75997689189401,10.021664,35049.0,10.0,-0.2466478,-0.07057191999999998,-0.96653388,1.0000016371612503,0.0,0.0,0.0,-2.40262925,0.6962721499999999,9.483030549999999,-0.6465,-0.1175,0.0541,-0.7519,4.176067233511821,-14.27923451904686,98.1002771729469,30.3
75997699069856,9.880455,35059.0,10.0,-0.2466478,-0.07057191999999998,-0.96653388,1.0000016371612503,0.0,0.0,0.0,-2.42224255,0.6864655000000001,9.473223899999999,-0.6465,-0.1175,0.0541,-0.7519,4.176067233511821,-14.27923451904686,98.1002771729469,30.3
75997709124128,10.054272,35069.0,10.0,-0.2466478,-0.07057191999999998,-0.96653388,1.0000016371612503,0.0,0.0,0.0,-2.4320492,0.6864655000000001,9.483030549999999,-0.6465,-0.1175,0.0541,-0.7519,4.176067233511821,-14.27923451904686,98.1002771729469,30.3
75997719173727,10.049599,35079.0,10.0,-0.2466478,-0.07057191999999998,-0.96653388,1.0000016371612503,0.0,0.0,0.0,-2.4320492,0.67665885,9.492837199999999,-0.6465,-0.1175,0.0541,-0.7519,4.176067233511821,-14.27923451904686,98.1002771729469,30.3
75997729111240,9.937513,35089.0,10.0,-0.2466478,-0.07057191999999998,-0.96653388,1.0000016371612503,0.0,0.0,0.0,-2.4124358999999997,0.6864655000000001,9.473223899999999,-0.6465,-0.1175,0.0541,-0.7519,4.176067233511821,-14.27923451904686,98.1002771729469,30.3
75997739114250,10.00301,35099.0,10.0,-0.2466478,-0.07057191999999998,-0.96653388,1.0000016371612503,0.0,0.0,0.0,-2.42224255,0.6864655000000001,9.492837199999999,-0.6465,-0.1175,0.0541,-0.7519,4.176067233511821,-14.27923451904686,98.1002771729469,30.3
75997749020758,9.906508,35109.0,10.0,-0.2466478,-0.07057191999999998,-0.96653388,1.0000016371612503,0.0,0.0,0.0,-2.42224255,0.6864655000000001,9.483030549999999,-0.6465,-0.1175,0.0541,-0.7519,4.176067233511821,-14.27923451904686,98.1002771729469,30.3
75997759054895,10.034137,35119.0,10.0,-0.2466478,-0.07057191999999998,-0.96653388,1.0000016371612503,0.0,0.0,0.0,-2.42224255,0.6962721499999999,9.483030549999999,-0.6465,-0.1175,0.0541,-0.7519,4.176067233511821,-14.27923451904686,98.1002771729469,30.3
75997769009729,9.954834,35129.0,10.0,-0.2466478,-0.07057191999999998,-0.96653388,1.0000016371612503,0.0,0.0,0.0,-2.42224255,0.6864655000000001,9.473223899999999,-0.6465,-0.1175,0.0541,-0.7519,4.176067233511821,-14.27923451904686,98.1002771729469,30.3
75997779056667,10.046938,35139.0,10.0,-0.2466478,-0.07057191999999998,-0.96653388,1.0000016371612503,0.0,0.0,0.0,-2.4320492,0.6962721499999999,9.473223899999999,-0.6465,-0.1175,0.0541,-0.7519,4.176067233511821,-14.27923451904686,98.1002771729469,30.3
75997789076251,10.019584,35149.0,10.0,-0.2466478,-0.07057191999999998,-0.96653388,1.0000016371612503,0.0,0.0,0.0,-2.42224255,0.7060787999999999,9.483030549999999,-0.6465,-0.1175,0.0541,-0.7519,4.176067233511821,-14.27923451904686,98.1002771729469,30.3
75997799093130,10.016879,35159.0,10.0,-0.2466478,-0.07057191999999998,-0.96653388,1.0000016371612503,0.0,0.0,0.0,-2.4124358999999997,0.7060787999999999,9.473223899999999,-0.6465,-0.1175,0.0541,-0.7519,4.176067233511821,-14.27923451904686,98.1002771729469,30.3
75997809168963,10.075833,35169.0,10.0,-0.2466478,-0.07057191999999998,-0.96653388,1.0000016371612503,0.0,0.0,0.0,-2.42224255,0.6962721499999999,9.483030549999999,-0.6465,-0.1175,0.0541,-0.7519,4.176067233511821,-14.27923451904686,98.1002771729469,30.3
75997819214150,10.045187,35179.0,10.0,-0.2466478,-0.07057191999999998,-0.96653388,1.0000016371612503,0.0,0.0,0.0,-2.42224255,0.6962721499999999,9.483030549999999,-0.6465,-0.1175,0.0541,-0.7519,4.176067233511821,-14.27923451904686,98.1002771729469,30.3
75997829254336,10.040186,35189.0,10.0,-0.2466478,-0.07057191999999998,-0.96653388,1.0000016371612503,0.0,0.0,0.0,-2.4320492,0.6864655000000001,9.473223899999999,-0.6465,-0.1175,0.0541,-0.7519,4.176067233511821,-14.27923451904686,98.1002771729469,30.3
75997839090248,9.835912,35199.0,10.0,-0.2466478,-0.07057191999999998,-0.96653388,1.0000016371612503,0.0,0.0,0.0,-2.42224255,0.6962721499999999,9.473223899999999,-0.6465,-0.1175,0.0541,-0.7519,4.176067233511821,-14.27923451904686,98.1002771729469,30.3
75997849265055,10.174807,35209.0,10.0,-0.2466478,-0.07057191999999998,-0.96653388,1.0000016371612503,0.0,0.0,0.0,-2.4124358999999997,0.6962721499999999,9.483030549999999,-0.6465,-0.1175,0.0541,-0.7519,4.176067233511821,-14.27923451904686,98.1002771729469,30.3
75997859302916,10.037861,35219.0,10.0,-0.2466478,-0.07057191999999998,-0.96653388,1.0000016371612503,0.0,0.0,0.0,-2.42224255,0.7060787999999999,9.473223899999999,-0.6465,-0.1175,0.0541,-0.7519,4.176067233511821,-14.27923451904686,98.1002771729469,30.3
75997869087330,9.784414,35229.0,10.0,-0.2466478,-0.07057191999999998,-0.96653388,1.0000016371612503,0.0,0.0,0.0,-2.40262925,0.6864655000000001,9.473223899999999,-0.6465,-0.1175,0.0541,-0.7519,4.176067233511821,-14.27923451904686,98.1002771729469,30.3
75997879271427,10.184097,35239.0,10.0,-0.2466478,-0.07057191999999998,-0.96653388,1.0000016371612503,0.0,0.0,0.0,-2.4124358999999997,0.6864655000000001,9.473223899999999,-0.6465,-0.1175,0.0541,-0.7519,4.176067233511821,-14.27923451904686,98.1002771729469,30.4
75997889208777,9.93735,35249.0,10.0,-0.2466478,-0.07057191999999998,-0.96653388,1.0000016371612503,0.0,0.0,0.0,-2.4124358999999997,0.6962721499999999,9.473223899999999,-0.6465,-0.1175,0.0541,-0.7519,4.176067233511821,-14.27923451904686,98.1002771729469,30.4
75997899128522,9.919745,35259.0,10.0,-0.2466478,-0.07057191999999998,-0.96653388,1.0000016371612503,0.0,0.0,0.0,-2.4124358999999997,0.6962721499999999,9.483030549999999,-0.6465,-0.1175,0.0541,-0.7519,4.176067233511821,-14.27923451904686,98.1002771729469,30.3
75997909188149,10.059627,35269.0,10.0,-0.2466478,-0.07057191999999998,-0.96653388,1.0000016371612503,0.0,0.0,0.0,-2.42224255,0.6962721499999999,9.492837199999999,-0.6465,-0.1175,0.0541,-0.7519,4.176067233511821,-14.27923451904686,98.1002771729469,30.3
75997919287085,10.098936,35279.0,10.0,-0.2466478,-0.07057191999999998,-0.96653388,1.0000016371612503,0.0,0.0,0.0,-2.4124358999999997,0.6962721499999999,9.483030549999999,-0.6465,-0.1175,0.0541,-0.7519,4.176067233511821,-14.27923451904686,98.1002771729469,30.3
75997929202424,9.915339,35289.0,10.0,-0.2466478,-0.07057191999999998,-0.96653388,1.0000016371612503,0.0,0.0,0.0,-2.42224255,0.6962721499999999,9.473223899999999,-0.6465,-0.1175,0.0541,-0.7519,4.176067233511821,-14.27923451904686,98.1002771729469,30.3
75997939045664,9.84324,35299.0,10.0,-0.2466478,-0.07057191999999998,-0.96653388,1.0000016371612503,0.0,0.0,0.0,-2.4124358999999997,0.6864655000000001,9.483030549999999,-0.6465,-0.1175,0.0541,-0.7519,4.176067233511821,-14.27923451904686,98.1002771729469,30.3
75997949159313,10.113649,35309.0,10.0,-0.2466478,-0.07057191999999998,-0.96653388,1.0000016371612503,0.0,0.0,0.0,-2.4124358999999997,0.7060787999999999,9.473223899999999,-0.6465,-0.1175,0.0541,-0.7519,4.176067233511821,-14.27923451904686,98.1002771729469,30.3
75997959203074,10.043761,35319.0,10.0,-0.2466478,-0.07057191999999998,-0.96653388,1.0000016371612503,0.0,0.0,0.0,-2.42224255,0.6962721499999999,9.483030549999999,-0.6465,-0.1175,0.0541,-0.7519,4.176067233511821,-14.27923451904686,98.1002771729469,30.3
75997969172515,9.969441,35329.0,10.0,-0.2466478,-0.07057191999999998,-0.96653388,1.0000016371612503,0.0,0.0,0.0,-2.42224255,0.7060787999999999,9.483030549999999,-0.6465,-0.1175,0.0541,-0.7519,4.176067233511821,-14.27923451904686,98.1002771729469,30.3
75997979179603,10.007088,35339.0,10.0,-0.2466478,-0.07057191999999998,-0.96653388,1.0000016371612503,0.0,0.0,0.0,-2.42224255,0.6962721499999999,9.483030549999999,-0.6465,-0.1175,0.0541,-0.7519,4.176067233511821,-14.27923451904686,98.1002771729469,30.3
75997989176954,9.997351,35349.0,10.0,-0.2466478,-0.07057191999999998,-0.96653388,1.0000016371612503,0.0,0.0,0.0,-2.4124358999999997,0.6962721499999999,9.473223899999999,-0.6465,-0.1175,0.0541,-0.7519,4.176067233511821,-14.27923451904686,98.1002771729469,30.3
75997999173399,9.996445,35359.0,10.0,-0.2466478,-0.07057191999999998,-0.96653388,1.0000016371612503,0.0,0.0,0.0,-2.4320492,0.6864655000000001,9.492837199999999,-0.6465,-0.1175,0.0541,-0.7519,4.176067233511821,-14.27923451904686,98.1002771729469,30.4
75998009220465,10.047066,35369.0,10.0,-0.2466478,-0.07057191999999998,-0.96653388,1.0000016371612503,0.0,0.0,0.0,-2.42224255,0.7060787999999999,9.483030549999999,-0.6465,-0.1175,0.0541,-0.7519,4.176067233511821,-14.27923451904686,98.1002771729469,30.4
75998019177637,9.957172,35379.0,10.0,-0.2466478,-0.07057191999999998,-0.96653388,1.0000016371612503,0.0,0.0,0.0,-2.42224255,0.6864655000000001,9.483030549999999,-0.6465,-0.1175,0.0541,-0.7519,4.176067233511821,-14.27923451904686,98.1002771729469,30.4
75998029191967,10.01433,35389.0,10.0,-0.2466478,-0.07057191999999998,-0.96653388,1.0000016371612503,0.0,0.0,0.0,-2.4124358999999997,0.6962721499999999,9.483030549999999,-0.6465,-0.1175,0.0541,-0.7519,4.176067233511821,-14.27923451904686,98.1002771729469,30.4
75998039259978,10.068011,35399.0,10.0,-0.2466478,-0.07057191999999998,-0.96653388,1.0000016371612503,0.0,0.0,0.0,-2.4124358999999997,0.6962721499999999,9.483030549999999,-0.6465,-0.1175,0.0541,-0.7519,4.176067233511821,-14.27923451904686,98.1002771729469,30.4
75998049265203,10.005225,35409.0,10.0,-0.2466478,-0.07057191999999998,-0.96653388,1.0000016371612503,0.0,0.0,0.0,-2.42224255,0.6864655000000001,9.483030549999999,-0.6465,-0.1175,0.0541,-0.7519,4.176067233511821,-14.27923451904686,98.1002771729469,30.4
75998059101294,9.836091,35419.0,10.0,-0.2466478,-0.07057191999999998,-0.96653388,1.0000016371612503,0.0,0.0,0.0,-2.4124358999999997,0.6864655000000001,9.492837199999999,-0.6465,-0.1175,0.0541,-0.7519,4.176067233511821,-14.27923451904686,98.1002771729469,30.3
75998069143487,10.042193,35429.0,10.0,-0.2466478,-0.07057191999999998,-0.96653388,1.0000016371612503,0.0,0.0,0.0,-2.42224255,0.6864655000000001,9.473223899999999,-0.6465,-0.1175,0.0541,-0.7519,4.176067233511821,-14.27923451904686,98.1002771729469,30.4
75998079202330,10.058843,35439.0,10.0,-0.2466478,-0.07057191999999998,-0.96653388,1.0000016371612503,0.0,0.0,0.0,-2.42224255,0.6962721499999999,9.46341725,-0.6465,-0.1175,0.0541,-0.7519,4.176067233511821,-14.27923451904686,98.1002771729469,30.4
75998089094396,9.892066,35449.0,10.0,-0.2466478,-0.07057191999999998,-0.96653388,1.0000016371612503,0.0,0.0,0.0,-2.4124358999999997,0.6962721499999999,9.483030549999999,-0.6465,-0.1175,0.0541,-0.7519,4.176067233511821,-14.27923451904686,98.1002771729469,30.3
75998099145555,10.051159,35459.0,10.0,-0.2466478,-0.07057191999999998,-0.96653388,1.0000016371612503,0.0,0.0,0.0,-2.4320492,0.7060787999999999,9.473223899999999,-0.6465,-0.1175,0.0541,-0.7519,4.176067233511821,-14.27923451904686,98.1002771729469,30.3
75998109071067,9.925512,35469.0,10.0,-0.2466478,-0.07057191999999998,-0.96653388,1.0000016371612503,0.0,0.0,0.0,-2.42224255,0.6864655000000001,9.483030549999999,-0.6465,-0.1175,0.0541,-0.7519,4.176067233511821,-14.27923451904686,98.1002771729469,30.3
75998119064883,9.993816,35479.0,10.0,-0.2466478,-0.07057191999999998,-0.96653388,1.0000016371612503,0.0,0.0,0.0,-2.4124358999999997,0.6962721499999999,9.492837199999999,-0.6465,-0.1175,0.0541,-0.7519,4.176067233511821,-14.27923451904686,98.1002771729469,30.3
75998129094573,10.02969,35489.0,10.0,-0.2466478,-0.07057191999999998,-0.96653388,1.0000016371612503,0.0,0.0,0.0,-2.4124358999999997,0.6864655000000001,9.483030549999999,-0.6465,-0.1175,0.0541,-0.7519,4.176067233511821,-14.27923451904686,98.1002771729469,30.3
75998139025742,9.931169,35499.0,10.0,-0.2466478,-0.07057191999999998,-0.96653388,1.0000016371612503,0.0,0.0,0.0,-2.4320492,0.7060787999999999,9.483030549999999,-0.6465,-0.1175,0.0541,-0.7519,4.176067233511821,-14.27923451904686,98.1002771729469,30.3
75998149218583,10.192841,35509.0,10.0,-0.2466478,-0.07057191999999998,-0.96653388,1.0000016371612503,0.0,0.0,0.0,-2.42224255,0.6962721499999999,9.483030549999999,-0.6465,-0.1175,0.0541,-0.7519,4.176067233511821,-14.27923451904686,98.1002771729469,30.4
75998159212755,9.994172,35519.0,10.0,-0.2466478,-0.07057191999999998,-0.96653388,1.0000016371612503,0.0,0.0,0.0,-2.42224255,0.6962721499999999,9.483030549999999,-0.6465,-0.1175,0.0541,-0.7519,4.176067233511821,-14.27923451904686,98.1002771729469,30.3
75998169205902,9.993147,35529.0,10.0,-0.2466478,-0.07057191999999998,-0.96653388,1.0000016371612503,0.0,0.0,0.0,-2.4124358999999997,0.6864655000000001,9.492837199999999,-0.6465,-0.1175,0.0541,-0.7519,4.176067233511821,-14.27923451904686,98.1002771729469,30.3
75998179145515,9.939613,35539.0,10.0,-0.2466478,-0.07057191999999998,-0.96653388,1.0000016371612503,0.0,0.0,0.0,-2.42224255,0.6962721499999999,9.483030549999999,-0.6465,-0.1175,0.0541,-0.7519,4.176067233511821,-14.27923451904686,98.1002771729469,30.3
75998189128405,9.98289,35549.0,10.0,-0.2466478,-0.07057191999999998,-0.96653388,1.0000016371612503,0.0,0.0,0.0,-2.42224255,0.6962721499999999,9.473223899999999,-0.6465,-0.1175,0.0541,-0.7519,4.176067233511821,-14.27923451904686,98.1002771729469,30.3
75998199082822,9.954417,35559.0,10.0,-0.2466478,-0.07057191999999998,-0.96653388,1.0000016371612503,0.0,0.0,0.0,-2.4320492,0.6864655000000001,9.483030549999999,-0.6465,-0.1175,0.0541,-0.7519,4.176067233511821,-14.27923451904686,98.1002771729469,30.3
75998209096716,10.013894,35569.0,10.0,-0.2466478,-0.07057191999999998,-0.96653388,1.0000016371612503,0.0,0.0,0.0,-2.42224255,0.6962721499999999,9.483030549999999,-0.6465,-0.1175,0.0541,-0.7519,4.176067233511821,-14.27923451904686,98.1002771729469,30.3
75998219080417,9.983701,35579.0,10.0,-0.2466478,-0.07057191999999998,-0.96653388,1.0000016371612503,0.0,0.0,0.0,-2.4124358999999997,0.6962721499999999,9.473223899999999,-0.6465,-0.1175,0.0541,-0.7519,4.176067233511821,-14.27923451904686,98.1002771729469,30.3
75998229030660,9.950243,35589.0,10.0,-0.2466478,-0.07057191999999998,-0.96653388,1.0000016371612503,0.0,0.0,0.0,-2.4320492,0.7060787999999999,9.483030549999999,-0.6465,-0.1175,0.0541,-0.7519,4.176067233511821,-14.27923451904686,98.1002771729469,30.4
75998239170249,10.139589,35599.0,10.0,-0.2466478,-0.07057191999999998,-0.96653388,1.0000016371612503,0.0,0.0,0.0,-2.40262925,0.6962721499999999,9.483030549999999,-0.6465,-0.1175,0.0541,-0.7519,4.176067233511821,-14.27923451904686,98.1002771729469,30.3
75998249158001,9.987752,35609.0,10.0,-0.2466478,-0.07057191999999998,-0.96653388,1.0000016371612503,0.0,0.0,0.0,-2.42224255,0.6864655000000001,9.483030549999999,-0.6465,-0.1175,0.0541,-0.7519,4.176067233511821,-14.27923451904686,98.1002771729469,30.3
75998259140790,9.982789,35619.0,10.0,-0.2466478,-0.07057191999999998,-0.96653388,1.0000016371612503,0.0,0.0,0.0,-2.4124358999999997,0.6962721499999999,9.473223899999999,-0.6465,-0.1175,0.0541,-0.7519,4.176067233511821,-14.27923451904686,98.1002771729469,30.3
75998269167793,10.027003,35629.0,10.0,-0.2466478,-0.07057191999999998,-0.96653388,1.0000016371612503,0.0,0.0,0.0,-2.42224255,0.6962721499999999,9.492837199999999,-0.6465,-0.1175,0.0541,-0.7519,4.176067233511821,-14.27923451904686,98.1002771729469,30.4
75998279018767,9.850974,35639.0,10.0,-0.2466478,-0.07057191999999998,-0.96653388,1.0000016371612503,0.0,0.0,0.0,-2.4320492,0.6962721499999999,9.473223899999999,-0.6465,-0.1175,0.0541,-0.7519,4.176067233511821,-14.27923451904686,98.1002771729469,30.4
75998289041517,10.02275,35649.0,10.0,-0.2466478,-0.07057191999999998,-0.96653388,1.0000016371612503,0.0,0.0,0.0,-2.4320492,0.6962721499999999,9.473223899999999,-0.6465,-0.1175,0.0541,-0.7519,4.176067233511821,-14.27923451904686,98.1002771729469,30.3
75998299107345,10.065828,35659.0,10.0,-0.2466478,-0.07057191999999998,-0.96653388,1.0000016371612503,0.0,0.0,0.0,-2.4320492,0.6962721499999999,9.473223899999999,-0.6465,-0.1175,0.0541,-0.7519,4.176067233511821,-14.27923451904686,98.1002771729469,30.3
75998309086967,9.979622,35669.0,10.0,-0.2466478,-0.07057191999999998,-0.96653388,1.0000016371612503,0.0,0.0,0.0,-2.4124358999999997,0.67665885,9.483030549999999,-0.6465,-0.1175,0.0541,-0.7519,4.176067233511821,-14.27923451904686,98.1002771729469,30.3
75998319179620,10.092653,35679.0,10.0,-0.2466478,-0.07057191999999998,-0.96653388,1.0000016371612503,0.0,0.0,0.0,-2.42224255,0.6962721499999999,9.46341725,-0.6465,-0.1175,0.0541,-0.7519,4.176067233511821,-14.27923451904686,98.1002771729469,30.3
75998329102301,9.922681,35689.0,10.0,-0.2466478,-0.07057191999999998,-0.96653388,1.0000016371612503,0.0,0.0,0.0,-2.40262925,0.6962721499999999,9.483030549999999,-0.6465,-0.1175,0.0541,-0.7519,4.176067233511821,-14.27923451904686,98.1002771729469,30.3
75998339155384,10.053083,35699.0,10.0,-0.2466478,-0.07057191999999998,-0.96653388,1.0000016371612503,0.0,0.0,0.0,-2.42224255,0.6962721499999999,9.483030549999999,-0.6465,-0.1175,0.0541,-0.7519,4.176067233511821,-14.27923451904686,98.1002771729469,30.3
75998349052246,9.896862,35709.0,10.0,-0.2466478,-0.07057191999999998,-0.96653388,1.0000016371612503,0.0,0.0,0.0,-2.4124358999999997,0.6864655000000001,9.483030549999999,-0.6465,-0.1175,0.0541,-0.7519,4.176067233511821,-14.27923451904686,98.1002771729469,30.3
75998359065282,10.013036,35719.0,10.0,-0.2466478,-0.07057191999999998,-0.96653388,1.0000016371612503,0.0,0.0,0.0,-2.42224255,0.6962721499999999,9.483030549999999,-0.6465,-0.1175,0.0541,-0.7519,4.176067233511821,-14.27923451904686,98.1002771729469,30.3
75998369076483,10.011201,35729.0,10.0,-0.2466478,-0.07057191999999998,-0.96653388,1.0000016371612503,0.0,0.0,0.0,-2.42224255,0.6962721499999999,9.473223899999999,-0.6465,-0.1175,0.0541,-0.7519,4.176067233511821,-14.27923451904686,98.1002771729469,30.4
75998379051042,9.974559,35739.0,10.0,-0.2466478,-0.07057191999999998,-0.96653388,1.0000016371612503,0.0,0.0,0.0,-2.4124358999999997,0.6962721499999999,9.483030549999999,-0.6465,-0.1175,0.0541,-0.7519,4.176067233511821,-14.27923451904686,98.1002771729469,30.4
75998389054650,10.003608,35749.0,10.0,-0.2466478,-0.07057191999999998,-0.96653388,1.0000016371612503,0.0,0.0,0.0,-2.42224255,0.6962721499999999,9.473223899999999,-0.6465,-0.1175,0.0541,-0.7519,4.176067233511821,-14.27923451904686,98.1002771729469,30.4
75998399071884,10.017234,35759.0,10.0,-0.2466478,-0.07057191999999998,-0.96653388,1.0000016371612503,0.0,0.0,0.0,-2.4124358999999997,0.6864655000000001,9.483030549999999,-0.6465,-0.1175,0.0541,-0.7519,4.176067233511821,-14.27923451904686,98.1002771729469,30.4
75998408989404,9.91752,35769.0,10.0,-0.2466478,-0.07057191999999998,-0.96653388,1.0000016371612503,0.0,0.0,0.0,-2.4124358999999997,0.67665885,9.483030549999999,-0.6465,-0.1175,0.0541,-0.7519,4.176067233511821,-14.27923451904686,98.1002771729469,30.3
75998419170197,10.180793,35779.0,10.0,-0.2466478,-0.07057191999999998,-0.96653388,1.0000016371612503,0.0,0.0,0.0,-2.42224255,0.6962721499999999,9.473223899999999,-0.6465,-0.1175,0.0541,-0.7519,4.176067233511821,-14.27923451904686,98.1002771729469,30.4
75998429156247,9.98605,35789.0,10.0,-0.2466478,-0.07057191999999998,-0.96653388,1.0000016371612503,0.0,0.0,0.0,-2.4124358999999997,0.6962721499999999,9.483030549999999,-0.6465,-0.1175,0.0541,-0.7519,4.176067233511821,-14.27923451904686,98.1002771729469,30.3
75998439164643,10.008396,35799.0,10.0,-0.2466478,-0.07057191999999998,-0.96653388,1.0000016371612503,0.0,0.0,0.0,-2.42224255,0.6962721499999999,9.492837199999999,-0.6465,-0.1175,0.0541,-0.7519,4.176067233511821,-14.27923451904686,98.1002771729469,30.3
75998449164852,10.000209,35809.0,10.0,-0.2466478,-0.07057191999999998,-0.96653388,1.0000016371612503,0.0,0.0,0.0,-2.42224255,0.6864655000000001,9.483030549999999,-0.6465,-0.1175,0.0541,-0.7519,4.176067233511821,-14.27923451904686,98.1002771729469,30.3
75998459143362,9.97851,35819.0,10.0,-0.2466478,-0.07057191999999998,-0.96653388,1.0000016371612503,0.0,0.0,0.0,-2.4124358999999997,0.6864655000000001,9.473223899999999,-0.6465,-0.1175,0.0541,-0.7519,4.176067233511821,-14.27923451904686,98.1002771729469,30.3
75998469162133,10.018771,35829.0,10.0,-0.2466478,-0.07057191999999998,-0.96653388,1.0000016371612503,0.0,0.0,0.0,-2.42224255,0.6962721499999999,9.483030549999999,-0.6465,-0.1175,0.0541,-0.7519,4.176067233511821,-14.27923451904686,98.1002771729469,30.3
75998479189144,10.027011,35839.0,10.0,-0.2466478,-0.07057191999999998,-0.96653388,1.0000016371612503,0.0,0.0,0.0,-2.42224255,0.67665885,9.483030549999999,-0.6465,-0.1175,0.0541,-0.7519,4.176067233511821,-14.27923451904686,98.1002771729469,30.3
75998489052052,9.862908,35849.0,10.0,-0.2466478,-0.07057191999999998,-0.96653388,1.0000016371612503,0.0,0.0,0.0,-2.40262925,0.6962721499999999,9.473223899999999,-0.6465,-0.1175,0.0541,-0.7519,4.176067233511821,-14.27923451904686,98.1002771729469,30.3
75998498992632,9.94058,35859.0,10.0,-0.2466478,-0.07057191999999998,-0.96653388,1.0000016371612503,0.0,0.0,0.0,-2.42224255,0.6864655000000001,9.483030549999999,-0.6465,-0.1175,0.0541,-0.7519,4.176067233511821,-14.27923451904686,98.1002771729469,30.4
75998508988182,9.99555,35869.0,10.0,-0.2466478,-0.07057191999999998,-0.96653388,1.0000016371612503,0.0,0.0,0.0,-2.42224255,0.6864655000000001,9.473223899999999,-0.6465,-0.1175,0.0541,-0.7519,4.176067233511821,-14.27923451904686,98.1002771729469,30.3
75998519156428,10.168246,35879.0,10.0,-0.2466478,-0.07057191999999998,-0.96653388,1.0000016371612503,0.0,0.0,0.0,-2.4320492,0.6864655000000001,9.483030549999999,-0.6465,-0.1175,0.0541,-0.7519,4.176067233511821,-14.27923451904686,98.1002771729469,30.3
75998529166933,10.010505,35889.0,10.0,-0.2466478,-0.07057191999999998,-0.96653388,1.0000016371612503,0.0,0.0,0.0,-2.4124358999999997,0.6864655000000001,9.483030549999999,-0.6465,-0.1175,0.0541,-0.7519,4.176067233511821,-14.27923451904686,98.1002771729469,30.3
75998539162925,9.995992,35899.0,10.0,-0.2466478,-0.07057191999999998,-0.96653388,1.0000016371612503,0.0,0.0,0.0,-2.4320492,0.6962721499999999,9.473223899999999,-0.6465,-0.1175,0.0541,-0.7519,4.176067233511821,-14.27923451904686,98.1002771729469,30.4
75998549160989,9.998064,35909.0,10.0,-0.2466478,-0.07057191999999998,-0.96653388,1.0000016371612503,0.0,0.0,0.0,-2.4124358999999997,0.6962721499999999,9.473223899999999,-0.6465,-0.1175,0.0541,-0.7519,4.176067233511821,-14.27923451904686,98.1002771729469,30.3
75998559168008,10.007019,35919.0,10.0,-0.2466478,-0.07057191999999998,-0.96653388,1.0000016371612503,0.0,0.0,0.0,-2.4124358999999997,0.6962721499999999,9.483030549999999,-0.6465,-0.1175,0.0541,-0.7519,4.176067233511821,-14.27923451904686,98.1002771729469,30.4
75998569161632,9.993624,35929.0,10.0,-0.2466478,-0.07057191999999998,-0.96653388,1.0000016371612503,0.0,0.0,0.0,-2.4124358999999997,0.6962721499999999,9.473223899999999,-0.6465,-0.1175,0.0541,-0.7519,4.176067233511821,-14.27923451904686,98.1002771729469,30.4
75998579153575,9.991943,35939.0,10.0,-0.2466478,-0.07057191999999998,-0.96653388,1.0000016371612503,0.0,0.0,0.0,-2.42224255,0.6962721499999999,9.483030549999999,-0.6465,-0.1175,0.0541,-0.7519,4.176067233511821,-14.27923451904686,98.1002771729469,30.3
75998588970223,9.816648,35949.0,10.0,-0.2466478,-0.07057191999999998,-0.96653388,1.0000016371612503,0.0,0.0,0.0,-2.42224255,0.6962721499999999,9.483030549999999,-0.6465,-0.1175,0.0541,-0.7519,4.176067233511821,-14.27923451904686,98.1002771729469,30.4
75998598961589,9.991366,35959.0,10.0,-0.2466478,-0.07057191999999998,-0.96653388,1.0000016371612503,0.0,0.0,0.0,-2.42224255,0.6962721499999999,9.483030549999999,-0.6465,-0.1175,0.0541,-0.7519,4.176067233511821,-14.27923451904686,98.1002771729469,30.4
75998608991714,10.030125,35969.0,10.0,-0.2466478,-0.07057191999999998,-0.96653388,1.0000016371612503,0.0,0.0,0.0,-2.42224255,0.67665885,9.473223899999999,-0.6465,-0.1175,0.0541,-0.7519,4.176067233511821,-14.27923451904686,98.1002771729469,30.4
75998619015900,10.024186,35979.0,10.0,-0.2466478,-0.07057191999999998,-0.96653388,1.0000016371612503,0.0,0.0,0.0,-2.42224255,0.6962721499999999,9.473223899999999,-0.6465,-0.1175,0.0541,-0.7519,4.176067233511821,-14.27923451904686,98.1002771729469,30.3
75998628993735,9.977835,35989.0,10.0,-0.2466478,-0.07057191999999998,-0.96653388,1.0000016371612503,0.0,0.0,0.0,-2.4124358999999997,0.6962721499999999,9.473223899999999,-0.6465,-0.1175,0.0541,-0.7519,4.176067233511821,-14.27923451904686,98.1002771729469,30.3
75998639173797,10.180062,35999.0,10.0,-0.2466478,-0.07057191999999998,-0.96653388,1.0000016371612503,0.0,0.0,0.0,-2.4124358999999997,0.6864655000000001,9.473223899999999,-0.6465,-0.1175,0.0541,-0.7519,4.176067233511821,-14.27923451904686,98.1002771729469,30.3
75998649152763,9.978966,36009.0,10.0,-0.2466478,-0.07057191999999998,-0.96653388,1.0000016371612503,0.0,0.0,0.0,-2.42224255,0.6962721499999999,9.483030549999999,-0.6465,-0.1175,0.0541,-0.7519,4.176067233511821,-14.27923451904686,98.1002771729469,30.3
75998659156372,10.003609,36019.0,10.0,-0.2466478,-0.07057191999999998,-0.96653388,1.0000016371612503,0.0,0.0,0.0,-2.42224255,0.6962721499999999,9.483030549999999,-0.6465,-0.1175,0.0541,-0.7519,4.176067233511821,-14.27923451904686,98.1002771729469,30.3
75998669166777,10.010405,36029.0,10.0,-0.2466478,-0.07057191999999998,-0.96653388,1.0000016371612503,0.0,0.0,0.0,-2.4124358999999997,0.6962721499999999,9.473223899999999,-0.6465,-0.1175,0.0541,-0.7519,4.176067233511821,-14.27923451904686,98.1002771729469,30.4
75998679080000,9.913223,36039.0,10.0,-0.2466478,-0.07057191999999998,-0.96653388,1.0000016371612503,0.0,0.0,0.0,-2.4320492,0.6962721499999999,9.473223899999999,-0.6465,-0.1175,0.0541,-0.7519,4.176067233511821,-14.27923451904686,98.1002771729469,30.4
75998688996834,9.916834,36049.0,10.0,-0.2466478,-0.07057191999999998,-0.96653388,1.0000016371612503,0.0,0.0,0.0,-2.4124358999999997,0.6864655000000001,9.473223899999999,-0.6465,-0.1175,0.0541,-0.7519,4.176067233511821,-14.27923451904686,98.1002771729469,30.4
75998699018160,10.021326,36059.0,10.0,-0.2466478,-0.07057191999999998,-0.96653388,1.0000016371612503,0.0,0.0,0.0,-2.42224255,0.6962721499999999,9.483030549999999,-0.6465,-0.1175,0.0541,-0.7519,4.176067233511821,-14.27923451904686,98.1002771729469,30.3
75998708993218,9.975058,36069.0,10.0,-0.2466478,-0.07057191999999998,-0.96653388,1.0000016371612503,0.0,0.0,0.0,-2.4320492,0.6962721499999999,9.483030549999999,-0.6465,-0.1175,0.0541,-0.7519,4.176067233511821,-14.27923451904686,98.1002771729469,30.3
75998719132806,10.139588,36079.0,10.0,-0.2466478,-0.07057191999999998,-0.96653388,1.0000016371612503,0.0,0.0,0.0,-2.42224255,0.6864655000000001,9.473223899999999,-0.6465,-0.1175,0.0541,-0.7519,4.176067233511821,-14.27923451904686,98.1002771729469,30.3
75998729176328,10.043522,36089.0,10.0,-0.2466478,-0.07057191999999998,-0.96653388,1.0000016371612503,0.0,0.0,0.0,-2.4320492,0.6962721499999999,9.483030549999999,-0.6465,-0.1175,0.0541,-0.7519,4.176067233511821,-14.27923451904686,98.1002771729469,30.3
75998739133773,9.957445,36099.0,10.0,-0.2466478,-0.07057191999999998,-0.96653388,1.0000016371612503,0.0,0.0,0.0,-2.4124358999999997,0.6962721499999999,9.483030549999999,-0.6465,-0.1175,0.0541,-0.7519,4.176067233511821,-14.27923451904686,98.1002771729469,30.3
75998749030951,9.897178,36109.0,10.0,-0.2466478,-0.07057191999999998,-0.96653388,1.0000016371612503,0.0,0.0,0.0,-2.42224255,0.6962721499999999,9.473223899999999,-0.6465,-0.1175,0.0541,-0.7519,4.176067233511821,-14.27923451904686,98.1002771729469,30.3
75998759164903,10.133952,36119.0,10.0,-0.2466478,-0.07057191999999998,-0.96653388,1.0000016371612503,0.0,0.0,0.0,-2.4124358999999997,0.6864655000000001,9.473223899999999,-0.6465,-0.1175,0.0541,-0.7519,4.176067233511821,-14.27923451904686,98.1002771729469,30.3
75998769161185,9.996282,36129.0,10.0,-0.2466478,-0.07057191999999998,-0.96653388,1.0000016371612503,0.0,0.0,0.0,-2.42224255,0.6864655000000001,9.483030549999999,-0.6465,-0.1175,0.0541,-0.7519,4.176067233511821,-14.27923451904686,98.1002771729469,30.3
75998779150460,9.989275,36139.0,10.0,-0.2466478,-0.07057191999999998,-0.96653388,1.0000016371612503,0.0,0.0,0.0,-2.4320492,0.6962721499999999,9.492837199999999,-0.6465,-0.1175,0.0541,-0.7519,4.176067233511821,-14.27923451904686,98.1002771729469,30.3
75998789022545,9.872085,36149.0,10.0,-0.2466478,-0.07057191999999998,-0.96653388,1.0000016371612503,0.0,0.0,0.0,-2.4320492,0.7060787999999999,9.483030549999999,-0.6465,-0.1175,0.0541,-0.7519,4.176067233511821,-14.27923451904686,98.1002771729469,30.3
75998798969664,9.947119,36159.0,10.0,-0.2466478,-0.07057191999999998,-0.96653388,1.0000016371612503,0.0,0.0,0.0,-2.4320492,0.6864655000000001,9.473223899999999,-0.6465,-0.1175,0.0541,-0.7519,4.176067233511821,-14.27923451904686,98.1002771729469,30.3
75998808990115,10.020451,36169.0,10.0,-0.2466478,-0.07057191999999998,-0.96653388,1.0000016371612503,0.0,0.0,0.0,-2.42224255,0.6864655000000001,9.483030549999999,-0.6465,-0.1175,0.0541,-0.7519,4.176067233511821,-14.27923451904686,98.1002771729469,30.3
75998819005707,10.015592,36179.0,10.0,-0.2466478,-0.07057191999999998,-0.96653388,1.0000016371612503,0.0,0.0,0.0,-2.42224255,0.6864655000000001,9.483030549999999,-0.6465,-0.1175,0.0541,-0.7519,4.176067233511821,-14.27923451904686,98.1002771729469,30.3
75998829140040,10.134333,36189.0,10.0,-0.2466478,-0.07057191999999998,-0.96653388,1.0000016371612503,0.0,0.0,0.0,-2.42224255,0.6864655000000001,9.483030549999999,-0.6465,-0.1175,0.0541,-0.7519,4.176067233511821,-14.27923451904686,98.1002771729469,30.4
75998839204443,10.064403,36199.0,10.0,-0.2466478,-0.07057191999999998,-0.96653388,1.0000016371612503,0.0,0.0,0.0,-2.42224255,0.6962721499999999,9.473223899999999,-0.6465,-0.1175,0.0541,-0.7519,4.176067233511821,-14.27923451904686,98.1002771729469,30.4
75998849136592,9.932149,36209.0,10.0,-0.2466478,-0.07057191999999998,-0.96653388,1.0000016371612503,0.0,0.0,0.0,-2.4124358999999997,0.6864655000000001,9.483030549999999,-0.6465,-0.1175,0.0541,-0.7519,4.176067233511821,-14.27923451904686,98.1002771729469,30.4
75998859165679,10.029087,36219.0,10.0,-0.2466478,-0.07057191999999998,-0.96653388,1.0000016371612503,0.0,0.0,0.0,-2.4320492,0.7060787999999999,9.473223899999999,-0.6465,-0.1175,0.0541,-0.7519,4.176067233511821,-14.27923451904686,98.1002771729469,30.4
75998869163909,9.99823,36229.0,10.0,-0.2466478,-0.07057191999999998,-0.96653388,1.0000016371612503,0.0,0.0,0.0,-2.4124358999999997,0.6962721499999999,9.473223899999999,-0.6465,-0.1175,0.0541,-0.7519,4.176067233511821,-14.27923451904686,98.1002771729469,30.4
75998879164515,10.000606,36239.0,10.0,-0.2466478,-0.07057191999999998,-0.96653388,1.0000016371612503,0.0,0.0,0.0,-2.4124358999999997,0.6864655000000001,9.483030549999999,-0.6465,-0.1175,0.0541,-0.7519,4.176067233511821,-14.27923451904686,98.1002771729469,30.4
75998888996915,9.8324,36249.0,10.0,-0.2466478,-0.07057191999999998,-0.96653388,1.0000016371612503,0.0,0.0,0.0,-2.40262925,0.6864655000000001,9.483030549999999,-0.6465,-0.1175,0.0541,-0.7519,4.176067233511821,-14.27923451904686,98.1002771729469,30.3
75998898980983,9.984068,36259.0,10.0,-0.2466478,-0.07057191999999998,-0.96653388,1.0000016371612503,0.0,0.0,0.0,-2.42224255,0.6962721499999999,9.483030549999999,-0.6465,-0.1175,0.0541,-0.7519,4.176067233511821,-14.27923451904686,98.1002771729469,30.3
75998909017116,10.036133,36269.0,10.0,-0.2466478,-0.07057191999999998,-0.96653388,1.0000016371612503,0.0,0.0,0.0,-2.4124358999999997,0.6962721499999999,9.483030549999999,-0.6465,-0.1175,0.0541,-0.7519,4.176067233511821,-14.27923451904686,98.1002771729469,30.3
75998919010718,9.993602,36279.0,10.0,-0.2466478,-0.07057191999999998,-0.96653388,1.0000016371612503,0.0,0.0,0.0,-2.4124358999999997,0.6962721499999999,9.483030549999999,-0.6465,-0.1175,0.0541,-0.7519,4.176067233511821,-14.27923451904686,98.1002771729469,30.3
75998928967691,9.956973,36289.0,10.0,-0.2466478,-0.07057191999999998,-0.96653388,1.0000016371612503,0.0,0.0,0.0,-2.42224255,0.6962721499999999,9.483030549999999,-0.6465,-0.1175,0.0541,-0.7519,4.176067233511821,-14.27923451904686,98.1002771729469,30.4
75998938941882,9.974191,36299.0,10.0,-0.2466478,-0.07057191999999998,-0.96653388,1.0000016371612503,0.0,0.0,0.0,-2.42224255,0.6962721499999999,9.46341725,-0.6465,-0.1175,0.0541,-0.7519,4.176067233511821,-14.27923451904686,98.1002771729469,30.4
75998948967169,10.025287,36309.0,10.0,-0.2466478,-0.07057191999999998,-0.96653388,1.0000016371612503,0.0,0.0,0.0,-2.42224255,0.6962721499999999,9.492837199999999,-0.6465,-0.1175,0.0541,-0.7519,4.176067233511821,-14.27923451904686,98.1002771729469,30.4
75998958969329,10.00216,36319.0,10.0,-0.2466478,-0.07057191999999998,-0.96653388,1.0000016371612503,0.0,0.0,0.0,-2.42224255,0.6962721499999999,9.483030549999999,-0.6465,-0.1175,0.0541,-0.7519,4.176067233511821,-14.27923451904686,98.1002771729469,30.4
75998968966086,9.996757,36329.0,10.0,-0.2466478,-0.07057191999999998,-0.96653388,1.0000016371612503,0.0,0.0,0.0,-2.42224255,0.6962721499999999,9.473223899999999,-0.6465,-0.1175,0.0541,-0.7519,4.176067233511821,-14.27923451904686,98.1002771729469,30.3
75998978965141,9.999055,36339.0,10.0,-0.2466478,-0.07057191999999998,-0.96653388,1.0000016371612503,0.0,0.0,0.0,-2.42224255,0.6962721499999999,9.483030549999999,-0.6465,-0.1175,0.0541,-0.7519,4.176067233511821,-14.27923451904686,98.1002771729469,30.4
75998989056597,10.091456,36349.0,10.0,-0.2466478,-0.07057191999999998,-0.96653388,1.0000016371612503,0.0,0.0,0.0,-2.42224255,0.7060787999999999,9.492837199999999,-0.6465,-0.1175,0.0541,-0.7519,4.176067233511821,-14.27923451904686,98.1002771729469,30.3
75998999010422,9.953825,36359.0,10.0,-0.2466478,-0.07057191999999998,-0.96653388,1.0000016371612503,0.0,0.0,0.0,-2.4320492,0.6864655000000001,9.473223899999999,-0.6465,-0.1175,0.0541,-0.7519,4.176067233511821,-14.27923451904686,98.1002771729469,30.3
75999008991428,9.981006,36369.0,10.0,-0.2466478,-0.07057191999999998,-0.96653388,1.0000016371612503,0.0,0.0,0.0,-2.42224255,0.6864655000000001,9.483030549999999,-0.6465,-0.1175,0.0541,-0.7519,4.176067233511821,-14.27923451904686,98.1002771729469,30.3
75999018993410,10.001982,36379.0,10.0,-0.2466478,-0.07057191999999998,-0.96653388,1.0000016371612503,0.0,0.0,0.0,-2.4124358999999997,0.6962721499999999,9.483030549999999,-0.6465,-0.1175,0.0541,-0.7519,4.176067233511821,-14.27923451904686,98.1002771729469,30.3
75999028992426,9.999016,36389.0,10.0,-0.2466478,-0.07057191999999998,-0.96653388,1.0000016371612503,0.0,0.0,0.0,-2.4124358999999997,0.6864655000000001,9.473223899999999,-0.6465,-0.1175,0.0541,-0.7519,4.176067233511821,-14.27923451904686,98.1002771729469,30.3
75999038944462,9.952036,36399.0,10.0,-0.2466478,-0.07057191999999998,-0.96653388,1.0000016371612503,0.0,0.0,0.0,-2.42224255,0.6864655000000001,9.483030549999999,-0.6465,-0.1175,0.0541,-0.7519,4.176067233511821,-14.27923451904686,98.1002771729469,30.3
75999048981989,10.037527,36409.0,10.0,-0.2466478,-0.07057191999999998,-0.96653388,1.0000016371612503,0.0,0.0,0.0,-2.42224255,0.6962721499999999,9.483030549999999,-0.6465,-0.1175,0.0541,-0.7519,4.176067233511821,-14.27923451904686,98.1002771729469,30.3
75999058981166,9.999177,36419.0,10.0,-0.2466478,-0.07057191999999998,-0.96653388,1.0000016371612503,0.0,0.0,0.0,-2.4124358999999997,0.6962721499999999,9.473223899999999,-0.6465,-0.1175,0.0541,-0.7519,4.176067233511821,-14.27923451904686,98.1002771729469,30.3
75999068971810,9.990644,36429.0,10.0,-0.2466478,-0.07057191999999998,-0.96653388,1.0000016371612503,0.0,0.0,0.0,-2.4124358999999997,0.6962721499999999,9.473223899999999,-0.6465,-0.1175,0.0541,-0.7519,4.176067233511821,-14.27923451904686,98.1002771729469,30.3
75999078955848,9.984038,36439.0,10.0,-0.2466478,-0.07057191999999998,-0.96653388,1.0000016371612503,0.0,0.0,0.0,-2.4124358999999997,0.6864655000000001,9.473223899999999,-0.6465,-0.1175,0.0541,-0.7519,4.176067233511821,-14.27923451904686,98.1002771729469,30.4
75999088962405,10.006557,36449.0,10.0,-0.2466478,-0.07057191999999998,-0.96653388,1.0000016371612503,0.0,0.0,0.0,-2.4124358999999997,0.6962721499999999,9.483030549999999,-0.6465,-0.1175,0.0541,-0.7519,4.176067233511821,-14.27923451904686,98.1002771729469,30.4
75999098945358,9.982953,36459.0,10.0,-0.2466478,-0.07057191999999998,-0.96653388,1.0000016371612503,0.0,0.0,0.0,-2.4124358999999997,0.6864655000000001,9.483030549999999,-0.6465,-0.1175,0.0541,-0.7519,4.176067233511821,-14.27923451904686,98.1002771729469,30.3
75999108972957,10.027599,36469.0,10.0,-0.2466478,-0.07057191999999998,-0.96653388,1.0000016371612503,0.0,0.0,0.0,-2.42224255,0.6864655000000001,9.473223899999999,-0.6465,-0.1175,0.0541,-0.7519,4.176067233511821,-14.27923451904686,98.1002771729469,30.3
75999118984296,10.011339,36479.0,10.0,-0.2466478,-0.07057191999999998,-0.96653388,1.0000016371612503,0.0,0.0,0.0,-2.4124358999999997,0.6962721499999999,9.473223899999999,-0.6465,-0.1175,0.0541,-0.7519,4.176067233511821,-14.27923451904686,98.1002771729469,30.3
75999128978263,9.993967,36489.0,10.0,-0.2466478,-0.07057191999999998,-0.96653388,1.0000016371612503,0.0,0.0,0.0,-2.42224255,0.6962721499999999,9.473223899999999,-0.6465,-0.1175,0.0541,-0.7519,4.176067233511821,-14.27923451904686,98.1002771729469,30.4
75999138958453,9.98019,36499.0,10.0,-0.2466478,-0.07057191999999998,-0.96653388,1.0000016371612503,0.0,0.0,0.0,-2.42224255,0.6962721499999999,9.483030549999999,-0.6465,-0.1175,0.0541,-0.7519,4.176067233511821,-14.27923451904686,98.1002771729469,30.3
75999148938370,9.979917,36509.0,10.0,-0.2466478,-0.07057191999999998,-0.96653388,1.0000016371612503,0.0,0.0,0.0,-2.42224255,0.6864655000000001,9.483030549999999,-0.6465,-0.1175,0.0541,-0.7519,4.176067233511821,-14.27923451904686,98.1002771729469,30.4
75999158994098,10.055728,36519.0,10.0,-0.2466478,-0.07057191999999998,-0.96653388,1.0000016371612503,0.0,0.0,0.0,-2.4320492,0.6962721499999999,9.492837199999999,-0.6465,-0.1175,0.0541,-0.7519,4.176067233511821,-14.27923451904686,98.1002771729469,30.4
75999168984433,9.990335,36529.0,10.0,-0.2466478,-0.07057191999999998,-0.96653388,1.0000016371612503,0.0,0.0,0.0,-2.4124358999999997,0.6864655000000001,9.46341725,-0.6465,-0.1175,0.0541,-0.7519,4.176067233511821,-14.27923451904686,98.1002771729469,30.4
75999178974524,9.990091,36539.0,10.0,-0.2466478,-0.07057191999999998,-0.96653388,1.0000016371612503,0.0,0.0,0.0,-2.4320492,0.6962721499999999,9.473223899999999,-0.6465,-0.1175,0.0541,-0.7519,4.176067233511821,-14.27923451904686,98.1002771729469,30.4
75999188983198,10.008674,36549.0,10.0,-0.2466478,-0.07057191999999998,-0.96653388,1.0000016371612503,0.0,0.0,0.0,-2.4124358999999997,0.67665885,9.483030549999999,-0.6465,-0.1175,0.0541,-0.7519,4.176067233511821,-14.27923451904686,98.1002771729469,30.4
75999198983681,10.000483,36559.0,10.0,-0.2466478,-0.07057191999999998,-0.96653388,1.0000016371612503,0.0,0.0,0.0,-2.4320492,0.6962721499999999,9.483030549999999,-0.6465,-0.1175,0.0541,-0.7519,4.176067233511821,-14.27923451904686,98.1002771729469,30.3
75999209046611,10.06293,36569.0,10.0,-0.2466478,-0.07057191999999998,-0.96653388,1.0000016371612503,0.0,0.0,0.0,-2.42224255,0.6962721499999999,9.473223899999999,-0.6465,-0.1175,0.0541,-0.7519,4.176067233511821,-14.27923451904686,98.1002771729469,30.3
75999219042150,9.995539,36579.0,10.0,-0.2466478,-0.07057191999999998,-0.96653388,1.0000016371612503,0.0,0.0,0.0,-2.42224255,0.6962721499999999,9.473223899999999,-0.6465,-0.1175,0.0541,-0.7519,4.176067233511821,-14.27923451904686,98.1002771729469,30.4
75999229041010,9.99886,36589.0,10.0,-0.2466478,-0.07057191999999998,-0.96653388,1.0000016371612503,0.0,0.0,0.0,-2.4124358999999997,0.6864655000000001,9.473223899999999,-0.6465,-0.1175,0.0541,-0.7519,4.176067233511821,-14.27923451904686,98.1002771729469,30.3
75999239033805,9.992795,36599.0,10.0,-0.2466478,-0.07057191999999998,-0.96653388,1.0000016371612503,0.0,0.0,0.0,-2.42224255,0.6962721499999999,9.492837199999999,-0.6465,-0.1175,0.0541,-0.7519,4.176067233511821,-14.27923451904686,98.1002771729469,30.3
75999249082029,10.048224,36609.0,10.0,-0.2466478,-0.07057191999999998,-0.96653388,1.0000016371612503,0.0,0.0,0.0,-2.4124358999999997,0.6864655000000001,9.483030549999999,-0.6465,-0.1175,0.0541,-0.7519,4.176067233511821,-14.27923451904686,98.1002771729469,30.3
75999259047970,9.965941,36619.0,10.0,-0.2466478,-0.07057191999999998,-0.96653388,1.0000016371612503,0.0,0.0,0.0,-2.42224255,0.6962721499999999,9.473223899999999,-0.6465,-0.1175,0.0541,-0.7519,4.176067233511821,-14.27923451904686,98.1002771729469,30.3
75999269018959,9.970989,36629.0,10.0,-0.2466478,-0.07057191999999998,-0.96653388,1.0000016371612503,0.0,0.0,0.0,-2.4124358999999997,0.6864655000000001,9.473223899999999,-0.6465,-0.1175,0.0541,-0.7519,4.176067233511821,-14.27923451904686,98.1002771729469,30.3
75999278976468,9.957509,36639.0,10.0,-0.2466478,-0.07057191999999998,-0.96653388,1.0000016371612503,0.0,0.0,0.0,-2.42224255,0.6864655000000001,9.483030549999999,-0.6465,-0.1175,0.0541,-0.7519,4.176067233511821,-14.27923451904686,98.1002771729469,30.3
75999289016988,10.04052,36649.0,10.0,-0.2466478,-0.07057191999999998,-0.96653388,1.0000016371612503,0.0,0.0,0.0,-2.42224255,0.6864655000000001,9.492837199999999,-0.6465,-0.1175,0.0541,-0.7519,4.176067233511821,-14.27923451904686,98.1002771729469,30.3
75999299040741,10.023753,36659.0,10.0,-0.2466478,-0.07057191999999998,-0.96653388,1.0000016371612503,0.0,0.0,0.0,-2.42224255,0.6962721499999999,9.473223899999999,-0.6465,-0.1175,0.0541,-0.7519,4.176067233511821,-14.27923451904686,98.1002771729469,30.3
75999308976043,9.935302,36669.0,10.0,-0.2466478,-0.07057191999999998,-0.96653388,1.0000016371612503,0.0,0.0,0.0,-2.4124358999999997,0.6962721499999999,9.473223899999999,-0.6465,-0.1175,0.0541,-0.7519,4.176067233511821,-14.27923451904686,98.1002771729469,30.4
75999318987071,10.011028,36679.0,10.0,-0.2466478,-0.07057191999999998,-0.96653388,1.0000016371612503,0.0,0.0,0.0,-2.4320492,0.6962721499999999,9.483030549999999,-0.6465,-0.1175,0.0541,-0.7519,4.176067233511821,-14.27923451904686,98.1002771729469,30.4
75999329016054,10.028983,36689.0,10.0,-0.2466478,-0.07057191999999998,-0.96653388,1.0000016371612503,0.0,0.0,0.0,-2.4124358999999997,0.6864655000000001,9.483030549999999,-0.6465,-0.1175,0.0541,-0.7519,4.176067233511821,-14.27923451904686,98.1002771729469,30.4
75999339022584,10.00653,36699.0,10.0,-0.2466478,-0.07057191999999998,-0.96653388,1.0000016371612503,0.0,0.0,0.0,-2.4320492,0.6864655000000001,9.483030549999999,-0.6465,-0.1175,0.0541,-0.7519,4.176067233511821,-14.27923451904686,98.1002771729469,30.4
75999349075792,10.053208,36709.0,10.0,-0.2466478,-0.07057191999999998,-0.96653388,1.0000016371612503,0.0,0.0,0.0,-2.4124358999999997,0.6962721499999999,9.483030549999999,-0.6465,-0.1175,0.0541,-0.7519,4.176067233511821,-14.27923451904686,98.1002771729469,30.4
75999359018596,9.942804,36719.0,10.0,-0.2466478,-0.07057191999999998,-0.96653388,1.0000016371612503,0.0,0.0,0.0,-2.4124358999999997,0.6962721499999999,9.483030549999999,-0.6465,-0.1175,0.0541,-0.7519,4.176067233511821,-14.27923451904686,98.1002771729469,30.4
75999369078145,10.059549,36729.0,10.0,-0.2466478,-0.07057191999999998,-0.96653388,1.0000016371612503,0.0,0.0,0.0,-2.42224255,0.6962721499999999,9.483030549999999,-0.6465,-0.1175,0.0541,-0.7519,4.176067233511821,-14.27923451904686,98.1002771729469,30.4
75999379042640,9.964495,36739.0,10.0,-0.2466478,-0.07057191999999998,-0.96653388,1.0000016371612503,0.0,0.0,0.0,-2.42224255,0.6864655000000001,9.473223899999999,-0.6465,-0.1175,0.0541,-0.7519,4.176067233511821,-14.27923451904686,98.1002771729469,30.4
75999389021619,9.978979,36749.0,10.0,-0.2466478,-0.07057191999999998,-0.96653388,1.0000016371612503,0.0,0.0,0.0,-2.4124358999999997,0.6864655000000001,9.473223899999999,-0.6465,-0.1175,0.0541,-0.7519,4.176067233511821,-14.27923451904686,98.1002771729469,30.4
75999399042862,10.021243,36759.0,10.0,-0.2466478,-0.07057191999999998,-0.96653388,1.0000016371612503,0.0,0.0,0.0,-2.42224255,0.6864655000000001,9.473223899999999,-0.6465,-0.1175,0.0541,-0.7519,4.176067233511821,-14.27923451904686,98.1002771729469,30.4
75999409091437,10.048575,36769.0,10.0,-0.2466478,-0.07057191999999998,-0.96653388,1.0000016371612503,0.0,0.0,0.0,-2.4320492,0.6864655000000001,9.473223899999999,-0.6465,-0.1175,0.0541,-0.7519,4.176067233511821,-14.27923451904686,98.1002771729469,30.3
75999419066644,9.975207,36779.0,10.0,-0.2466478,-0.07057191999999998,-0.96653388,1.0000016371612503,0.0,0.0,0.0,-2.4124358999999997,0.6864655000000001,9.483030549999999,-0.6465,-0.1175,0.0541,-0.7519,4.176067233511821,-14.27923451904686,98.1002771729469,30.3
75999429023224,9.95658,36789.0,10.0,-0.2466478,-0.07057191999999998,-0.96653388,1.0000016371612503,0.0,0.0,0.0,-2.42224255,0.6864655000000001,9.473223899999999,-0.6465,-0.1175,0.0541,-0.7519,4.176067233511821,-14.27923451904686,98.1002771729469,30.3
75999439012507,9.989283,36799.0,10.0,-0.2466478,-0.07057191999999998,-0.96653388,1.0000016371612503,0.0,0.0,0.0,-2.4124358999999997,0.6962721499999999,9.46341725,-0.6465,-0.1175,0.0541,-0.7519,4.176067233511821,-14.27923451904686,98.1002771729469,30.3
75999449155520,10.143013,36809.0,10.0,-0.2466478,-0.07057191999999998,-0.96653388,1.0000016371612503,0.0,0.0,0.0,-2.4320492,0.6962721499999999,9.492837199999999,-0.6465,-0.1175,0.0541,-0.7519,4.176067233511821,-14.27923451904686,98.1002771729469,30.4
75999459102676,9.947156,36819.0,10.0,-0.2466478,-0.07057191999999998,-0.96653388,1.0000016371612503,0.0,0.0,0.0,-2.42224255,0.6962721499999999,9.492837199999999,-0.6465,-0.1175,0.0541,-0.7519,4.176067233511821,-14.27923451904686,98.1002771729469,30.4
75999469129371,10.026695,36829.0,10.0,-0.2466478,-0.07057191999999998,-0.96653388,1.0000016371612503,0.0,0.0,0.0,-2.42224255,0.6864655000000001,9.483030549999999,-0.6465,-0.1175,0.0541,-0.7519,4.176067233511821,-14.27923451904686,98.1002771729469,30.4
75999479126480,9.997109,36839.0,10.0,-0.2466478,-0.07057191999999998,-0.96653388,1.0000016371612503,0.0,0.0,0.0,-2.42224255,0.6962721499999999,9.473223899999999,-0.6465,-0.1175,0.0541,-0.7519,4.176067233511821,-14.27923451904686,98.1002771729469,30.4
75999489046065,9.919585,36849.0,10.0,-0.2466478,-0.07057191999999998,-0.96653388,1.0000016371612503,0.0,0.0,0.0,-2.4124358999999997,0.7060787999999999,9.483030549999999,-0.6465,-0.1175,0.0541,-0.7519,4.176067233511821,-14.27923451904686,98.1002771729469,30.4
75999499082657,10.036592,36859.0,10.0,-0.2466478,-0.07057191999999998,-0.96653388,1.0000016371612503,0.0,0.0,0.0,-2.4320492,0.6864655000000001,9.483030549999999,-0.6465,-0.1175,0.0541,-0.7519,4.176067233511821,-14.27923451904686,98.1002771729469,30.4
75999509012032,9.929375,36869.0,10.0,-0.2466478,-0.07057191999999998,-0.96653388,1.0000016371612503,0.0,0.0,0.0,-2.4320492,0.6962721499999999,9.483030549999999,-0.6465,-0.1175,0.0541,-0.7519,4.176067233511821,-14.27923451904686,98.1002771729469,30.4
75999519054962,10.04293,36879.0,10.0,-0.2466478,-0.07057191999999998,-0.96653388,1.0000016371612503,0.0,0.0,0.0,-2.4124358999999997,0.7060787999999999,9.473223899999999,-0.6465,-0.1175,0.0541,-0.7519,4.176067233511821,-14.27923451904686,98.1002771729469,30.4
75999529108485,10.053523,36889.0,10.0,-0.2466478,-0.07057191999999998,-0.96653388,1.0000016371612503,0.0,0.0,0.0,-2.42224255,0.6962721499999999,9.492837199999999,-0.6465,-0.1175,0.0541,-0.7519,4.176067233511821,-14.27923451904686,98.1002771729469,30.4
75999539147754,10.039269,36899.0,10.0,-0.2466478,-0.07057191999999998,-0.96653388,1.0000016371612503,0.0,0.0,0.0,-2.4320492,0.6962721499999999,9.483030549999999,-0.6465,-0.1175,0.0541,-0.7519,4.176067233511821,-14.27923451904686,98.1002771729469,30.4
75999549136781,9.989027,36909.0,10.0,-0.2466478,-0.07057191999999998,-0.96653388,1.0000016371612503,0.0,0.0,0.0,-2.4124358999999997,0.6864655000000001,9.483030549999999,-0.6465,-0.1175,0.0541,-0.7519,4.176067233511821,-14.27923451904686,98.1002771729469,30.3
75999559152206,10.015425,36919.0,10.0,-0.2466478,-0.07057191999999998,-0.96653388,1.0000016371612503,0.0,0.0,0.0,-2.42224255,0.7060787999999999,9.473223899999999,-0.6465,-0.1175,0.0541,-0.7519,4.176067233511821,-14.27923451904686,98.1002771729469,30.4
75999569127406,9.9752,36929.0,10.0,-0.2466478,-0.07057191999999998,-0.96653388,1.0000016371612503,0.0,0.0,0.0,-2.42224255,0.6864655000000001,9.483030549999999,-0.6465,-0.1175,0.0541,-0.7519,4.176067233511821,-14.27923451904686,98.1002771729469,30.3
75999579137565,10.010159,36939.0,10.0,-0.2466478,-0.07057191999999998,-0.96653388,1.0000016371612503,0.0,0.0,0.0,-2.4124358999999997,0.6864655000000001,9.492837199999999,-0.6465,-0.1175,0.0541,-0.7519,4.176067233511821,-14.27923451904686,98.1002771729469,30.3
75999589037881,9.900316,36949.0,10.0,-0.2466478,-0.07057191999999998,-0.96653388,1.0000016371612503,0.0,0.0,0.0,-2.42224255,0.6962721499999999,9.492837199999999,-0.6465,-0.1175,0.0541,-0.7519,4.176067233511821,-14.27923451904686,98.1002771729469,30.3
75999599008998,9.971117,36959.0,10.0,-0.2466478,-0.07057191999999998,-0.96653388,1.0000016371612503,0.0,0.0,0.0,-2.42224255,0.6962721499999999,9.492837199999999,-0.6465,-0.1175,0.0541,-0.7519,4.176067233511821,-14.27923451904686,98.1002771729469,30.3
75999609031629,10.022631,36969.0,10.0,-0.2466478,-0.07057191999999998,-0.96653388,1.0000016371612503,0.0,0.0,0.0,-2.4124358999999997,0.6962721499999999,9.483030549999999,-0.6465,-0.1175,0.0541,-0.7519,4.176067233511821,-14.27923451904686,98.1002771729469,30.3
75999619106650,10.075021,36979.0,10.0,-0.2466478,-0.07057191999999998,-0.96653388,1.0000016371612503,0.0,0.0,0.0,-2.40262925,0.6864655000000001,9.492837199999999,-0.6465,-0.1175,0.0541,-0.7519,4.176067233511821,-14.27923451904686,98.1002771729469,30.3
75999629057439,9.950789,36989.0,10.0,-0.2466478,-0.07057191999999998,-0.96653388,1.0000016371612503,0.0,0.0,0.0,-2.42224255,0.6962721499999999,9.492837199999999,-0.6465,-0.1175,0.0541,-0.7519,4.176067233511821,-14.27923451904686,98.1002771729469,30.3
75999639110115,10.052676,36999.0,10.0,-0.2466478,-0.07057191999999998,-0.96653388,1.0000016371612503,0.0,0.0,0.0,-2.4320492,0.6962721499999999,9.483030549999999,-0.6465,-0.1175,0.0541,-0.7519,4.176067233511821,-14.27923451904686,98.1002771729469,30.3
75999649063277,9.953162,37009.0,10.0,-0.2466478,-0.07057191999999998,-0.96653388,1.0000016371612503,0.0,0.0,0.0,-2.4124358999999997,0.6962721499999999,9.483030549999999,-0.6465,-0.1175,0.0541,-0.7519,4.176067233511821,-14.27923451904686,98.1002771729469,30.3
75999659034703,9.971426,37019.0,10.0,-0.2466478,-0.07057191999999998,-0.96653388,1.0000016371612503,0.0,0.0,0.0,-2.42224255,0.6962721499999999,9.473223899999999,-0.6465,-0.1175,0.0541,-0.7519,4.176067233511821,-14.27923451904686,98.1002771729469,30.3
75999669165326,10.130623,37029.0,10.0,-0.2466478,-0.07057191999999998,-0.96653388,1.0000016371612503,0.0,0.0,0.0,-2.4124358999999997,0.6962721499999999,9.492837199999999,-0.6465,-0.1175,0.0541,-0.7519,4.176067233511821,-14.27923451904686,98.1002771729469,30.4
75999679244996,10.07967,37039.0,10.0,-0.2466478,-0.07057191999999998,-0.96653388,1.0000016371612503,0.0,0.0,0.0,-2.4124358999999997,0.6962721499999999,9.473223899999999,-0.6465,-0.1175,0.0541,-0.7519,4.176067233511821,-14.27923451904686,98.1002771729469,30.3
75999689114582,9.869586,37049.0,10.0,-0.2466478,-0.07057191999999998,-0.96653388,1.0000016371612503,0.0,0.0,0.0,-2.4124358999999997,0.6864655000000001,9.473223899999999,-0.6465,-0.1175,0.0541,-0.7519,4.176067233511821,-14.27923451904686,98.1002771729469,30.4
75999699148034,10.033452,37059.0,10.0,-0.2466478,-0.07057191999999998,-0.96653388,1.0000016371612503,0.0,0.0,0.0,-2.42224255,0.6864655000000001,9.483030549999999,-0.6465,-0.1175,0.0541,-0.7519,4.176067233511821,-14.27923451904686,98.1002771729469,30.4
75999709248588,10.100554,37069.0,10.0,-0.2466478,-0.07057191999999998,-0.96653388,1.0000016371612503,0.0,0.0,0.0,-2.42224255,0.6962721499999999,9.492837199999999,-0.6465,-0.1175,0.0541,-0.7519,4.176067233511821,-14.27923451904686,98.1002771729469,30.3
75999719167757,9.919169,37079.0,10.0,-0.2466478,-0.07057191999999998,-0.96653388,1.0000016371612503,0.0,0.0,0.0,-2.42224255,0.6864655000000001,9.483030549999999,-0.6465,-0.1175,0.0541,-0.7519,4.176067233511821,-14.27923451904686,98.1002771729469,30.3
75999729174117,10.00636,37089.0,10.0,-0.2466478,-0.07057191999999998,-0.96653388,1.0000016371612503,0.0,0.0,0.0,-2.42224255,0.6962721499999999,9.483030549999999,-0.6465,-0.1175,0.0541,-0.7519,4.176067233511821,-14.27923451904686,98.1002771729469,30.3
75999739087127,9.91301,37099.0,10.0,-0.2466478,-0.07057191999999998,-0.96653388,1.0000016371612503,0.0,0.0,0.0,-2.42224255,0.6962721499999999,9.473223899999999,-0.6465,-0.1175,0.0541,-0.7519,4.176067233511821,-14.27923451904686,98.1002771729469,30.3
75999749100565,10.013438,37109.0,10.0,-0.2466478,-0.07057191999999998,-0.96653388,1.0000016371612503,0.0,0.0,0.0,-2.4124358999999997,0.6864655000000001,9.483030549999999,-0.6465,-0.1175,0.0541,-0.7519,4.176067233511821,-14.27923451904686,98.1002771729469,30.3
75999759125390,10.024825,37119.0,10.0,-0.2466478,-0.07057191999999998,-0.96653388,1.0000016371612503,0.0,0.0,0.0,-2.4320492,0.6962721499999999,9.483030549999999,-0.6465,-0.1175,0.0541,-0.7519,4.176067233511821,-14.27923451904686,98.1002771729469,30.3
75999769131778,10.006388,37129.0,10.0,-0.2466478,-0.07057191999999998,-0.96653388,1.0000016371612503,0.0,0.0,0.0,-2.4124358999999997,0.6864655000000001,9.483030549999999,-0.6465,-0.1175,0.0541,-0.7519,4.176067233511821,-14.27923451904686,98.1002771729469,30.3
75999779108445,9.976667,37139.0,10.0,-0.2466478,-0.07057191999999998,-0.96653388,1.0000016371612503,0.0,0.0,0.0,-2.4320492,0.7060787999999999,9.46341725,-0.6465,-0.1175,0.0541,-0.7519,4.176067233511821,-14.27923451904686,98.1002771729469,30.4
75999789031280,9.922835,37149.0,10.0,-0.2466478,-0.07057191999999998,-0.96653388,1.0000016371612503,0.0,0.0,0.0,-2.42224255,0.6864655000000001,9.473223899999999,-0.6465,-0.1175,0.0541,-0.7519,4.176067233511821,-14.27923451904686,98.1002771729469,30.3
75999799078226,10.046946,37159.0,10.0,-0.2466478,-0.07057191999999998,-0.96653388,1.0000016371612503,0.0,0.0,0.0,-2.42224255,0.7060787999999999,9.492837199999999,-0.6465,-0.1175,0.0541,-0.7519,4.176067233511821,-14.27923451904686,98.1002771729469,30.3
75999809088081,10.009855,37169.0,10.0,-0.2466478,-0.07057191999999998,-0.96653388,1.0000016371612503,0.0,0.0,0.0,-2.4124358999999997,0.6864655000000001,9.483030549999999,-0.6465,-0.1175,0.0541,-0.7519,4.176067233511821,-14.27923451904686,98.1002771729469,30.4
75999819070448,9.982367,37179.0,10.0,-0.2466478,-0.07057191999999998,-0.96653388,1.0000016371612503,0.0,0.0,0.0,-2.42224255,0.6962721499999999,9.473223899999999,-0.6465,-0.1175,0.0541,-0.7519,4.176067233511821,-14.27923451904686,98.1002771729469,30.4
75999829067493,9.997045,37189.0,10.0,-0.2466478,-0.07057191999999998,-0.96653388,1.0000016371612503,0.0,0.0,0.0,-2.42224255,0.6864655000000001,9.473223899999999,-0.6465,-0.1175,0.0541,-0.7519,4.176067233511821,-14.27923451904686,98.1002771729469,30.4
75999839043938,9.976445,37199.0,10.0,-0.2466478,-0.07057191999999998,-0.96653388,1.0000016371612503,0.0,0.0,0.0,-2.4124358999999997,0.6864655000000001,9.473223899999999,-0.6465,-0.1175,0.0541,-0.7519,4.176067233511821,-14.27923451904686,98.1002771729469,30.4
75999849070311,10.026373,37209.0,10.0,-0.2466478,-0.07057191999999998,-0.96653388,1.0000016371612503,0.0,0.0,0.0,-2.40262925,0.6864655000000001,9.483030549999999,-0.6465,-0.1175,0.0541,-0.7519,4.176067233511821,-14.27923451904686,98.1002771729469,30.4
75999859059447,9.989136,37219.0,10.0,-0.2466478,-0.07057191999999998,-0.96653388,1.0000016371612503,0.0,0.0,0.0,-2.42224255,0.6962721499999999,9.473223899999999,-0.6465,-0.1175,0.0541,-0.7519,4.176067233511821,-14.27923451904686,98.1002771729469,30.3
75999869126171,10.066724,37229.0,10.0,-0.2466478,-0.07057191999999998,-0.96653388,1.0000016371612503,0.0,0.0,0.0,-2.4124358999999997,0.6864655000000001,9.46341725,-0.6465,-0.1175,0.0541,-0.7519,4.176067233511821,-14.27923451904686,98.1002771729469,30.4
75999879085580,9.959409,37239.0,10.0,-0.2466478,-0.07057191999999998,-0.96653388,1.0000016371612503,0.0,0.0,0.0,-2.4124358999999997,0.6962721499999999,9.483030549999999,-0.6465,-0.1175,0.0541,-0.7519,4.176067233511821,-14.27923451904686,98.1002771729469,30.4
75999889120447,10.034867,37249.0,10.0,-0.2466478,-0.07057191999999998,-0.96653388,1.0000016371612503,0.0,0.0,0.0,-2.42224255,0.6962721499999999,9.483030549999999,-0.6465,-0.1175,0.0541,-0.7519,4.176067233511821,-14.27923451904686,98.1002771729469,30.4
75999899091310,9.970863,37259.0,10.0,-0.2466478,-0.07057191999999998,-0.96653388,1.0000016371612503,0.0,0.0,0.0,-2.40262925,0.6962721499999999,9.473223899999999,-0.6465,-0.1175,0.0541,-0.7519,4.176067233511821,-14.27923451904686,98.1002771729469,30.4
75999909091477,10.000167,37269.0,10.0,-0.2466478,-0.07057191999999998,-0.96653388,1.0000016371612503,0.0,0.0,0.0,-2.42224255,0.6962721499999999,9.473223899999999,-0.6465,-0.1175,0.0541,-0.7519,4.176067233511821,-14.27923451904686,98.1002771729469,30.4
75999919085897,9.99442,37279.0,10.0,-0.2466478,-0.07057191999999998,-0.96653388,1.0000016371612503,0.0,0.0,0.0,-2.4124358999999997,0.6962721499999999,9.483030549999999,-0.6465,-0.1175,0.0541,-0.7519,4.176067233511821,-14.27923451904686,98.1002771729469,30.4
75999929069164,9.983267,37289.0,10.0,-0.2466478,-0.07057191999999998,-0.96653388,1.0000016371612503,0.0,0.0,0.0,-2.42224255,0.6962721499999999,9.473223899999999,-0.6465,-0.1175,0.0541,-0.7519,4.176067233511821,-14.27923451904686,98.1002771729469,30.3
75999939036082,9.966918,37299.0,10.0,-0.2466478,-0.07057191999999998,-0.96653388,1.0000016371612503,0.0,0.0,0.0,-2.4124358999999997,0.6962721499999999,9.473223899999999,-0.6465,-0.1175,0.0541,-0.7519,4.176067233511821,-14.27923451904686,98.1002771729469,30.4
75999949064124,10.028042,37309.0,10.0,-0.2466478,-0.07057191999999998,-0.96653388,1.0000016371612503,0.0,0.0,0.0,-2.4320492,0.6962721499999999,9.492837199999999,-0.6465,-0.1175,0.0541,-0.7519,4.176067233511821,-14.27923451904686,98.1002771729469,30.4
75999959109938,10.045814,37319.0,10.0,-0.2466478,-0.07057191999999998,-0.96653388,1.0000016371612503,0.0,0.0,0.0,-2.42224255,0.7060787999999999,9.492837199999999,-0.6465,-0.1175,0.0541,-0.7519,4.176067233511821,-14.27923451904686,98.1002771729469,30.4
75999969096423,9.986485,37329.0,10.0,-0.2466478,-0.07057191999999998,-0.96653388,1.0000016371612503,0.0,0.0,0.0,-2.4124358999999997,0.6962721499999999,9.483030549999999,-0.6465,-0.1175,0.0541,-0.7519,4.176067233511821,-14.27923451904686,98.1002771729469,30.4
75999979064236,9.967813,37339.0,10.0,-0.2466478,-0.07057191999999998,-0.96653388,1.0000016371612503,0.0,0.0,0.0,-2.42224255,0.7060787999999999,9.483030549999999,-0.6465,-0.1175,0.0541,-0.7519,4.176067233511821,-14.27923451904686,98.1002771729469,30.4
75999989038869,9.974633,37349.0,10.0,-0.2466478,-0.07057191999999998,-0.96653388,1.0000016371612503,0.0,0.0,0.0,-2.40262925,0.6962721499999999,9.473223899999999,-0.6465,-0.1175,0.0541,-0.7519,4.176067233511821,-14.27923451904686,98.1002771729469,30.4
75999999035706,9.996837,37359.0,10.0,-0.2466478,-0.07057191999999998,-0.96653388,1.0000016371612503,0.0,0.0,0.0,-2.4320492,0.6864655000000001,9.483030549999999,-0.6465,-0.1175,0.0541,-0.7519,4.176067233511821,-14.27923451904686,98.1002771729469,30.4
76000009125186,10.08948,37369.0,10.0,-0.2466478,-0.07057191999999998,-0.96653388,1.0000016371612503,0.0,0.0,0.0,-2.42224255,0.67665885,9.483030549999999,-0.6465,-0.1175,0.0541,-0.7519,4.176067233511821,-14.27923451904686,98.1002771729469,30.3
76000019159646,10.03446,37379.0,10.0,-0.2466478,-0.07057191999999998,-0.96653388,1.0000016371612503,0.0,0.0,0.0,-2.42224255,0.6864655000000001,9.483030549999999,-0.6465,-0.1175,0.0541,-0.7519,4.176067233511821,-14.27923451904686,98.1002771729469,30.3
76000029149449,9.989803,37389.0,10.0,-0.2466478,-0.07057191999999998,-0.96653388,1.0000016371612503,0.0,0.0,0.0,-2.4124358999999997,0.6864655000000001,9.473223899999999,-0.6465,-0.1175,0.0541,-0.7519,4.176067233511821,-14.27923451904686,98.1002771729469,30.3
76000039094619,9.94517,37399.0,10.0,-0.2466478,-0.07057191999999998,-0.96653388,1.0000016371612503,0.0,0.0,0.0,-2.4124358999999997,0.6864655000000001,9.483030549999999,-0.6465,-0.1175,0.0541,-0.7519,4.176067233511821,-14.27923451904686,98.1002771729469,30.3
76000049139043,10.044424,37409.0,10.0,-0.2466478,-0.07057191999999998,-0.96653388,1.0000016371612503,0.0,0.0,0.0,-2.42224255,0.7060787999999999,9.483030549999999,-0.6465,-0.1175,0.0541,-0.7519,4.176067233511821,-14.27923451904686,98.1002771729469,30.3
76000059158737,10.019694,37419.0,10.0,-0.2466478,-0.07057191999999998,-0.96653388,1.0000016371612503,0.0,0.0,0.0,-2.42224255,0.6962721499999999,9.483030549999999,-0.6465,-0.1175,0.0541,-0.7519,4.176067233511821,-14.27923451904686,98.1002771729469,30.3
76000069124559,9.965822,37429.0,10.0,-0.2466478,-0.07057191999999998,-0.96653388,1.0000016371612503,0.0,0.0,0.0,-2.4124358999999997,0.6962721499999999,9.473223899999999,-0.6465,-0.1175,0.0541,-0.7519,4.176067233511821,-14.27923451904686,98.1002771729469,30.4
76000079110779,9.98622,37439.0,10.0,-0.2466478,-0.07057191999999998,-0.96653388,1.0000016371612503,0.0,0.0,0.0,-2.4124358999999997,0.6962721499999999,9.483030549999999,-0.6465,-0.1175,0.0541,-0.7519,4.176067233511821,-14.27923451904686,98.1002771729469,30.4
76000089051800,9.941021,37449.0,10.0,-0.2466478,-0.07057191999999998,-0.96653388,1.0000016371612503,0.0,0.0,0.0,-2.40262925,0.6962721499999999,9.483030549999999,-0.6465,-0.1175,0.0541,-0.7519,4.176067233511821,-14.27923451904686,98.1002771729469,30.3
76000099077347,10.025547,37459.0,10.0,-0.2466478,-0.07057191999999998,-0.96653388,1.0000016371612503,0.0,0.0,0.0,-2.4124358999999997,0.6962721499999999,9.483030549999999,-0.6465,-0.1175,0.0541,-0.7519,4.176067233511821,-14.27923451904686,98.1002771729469,30.4
76000109080126,10.002779,37469.0,10.0,-0.2466478,-0.07057191999999998,-0.96653388,1.0000016371612503,0.0,0.0,0.0,-2.42224255,0.6962721499999999,9.473223899999999,-0.6465,-0.1175,0.0541,-0.7519,4.176067233511821,-14.27923451904686,98.1002771729469,30.4
76000119093804,10.013678,37479.0,10.0,-0.2466478,-0.07057191999999998,-0.96653388,1.0000016371612503,0.0,0.0,0.0,-2.42224255,0.6864655000000001,9.473223899999999,-0.6465,-0.1175,0.0541,-0.7519,4.176067233511821,-14.27923451904686,98.1002771729469,30.3
76000129039651,9.945847,37489.0,10.0,-0.2466478,-0.07057191999999998,-0.96653388,1.0000016371612503,0.0,0.0,0.0,-2.42224255,0.6962721499999999,9.473223899999999,-0.6465,-0.1175,0.0541,-0.7519,4.176067233511821,-14.27923451904686,98.1002771729469,30.4
76000139042980,10.003329,37499.0,10.0,-0.2466478,-0.07057191999999998,-0.96653388,1.0000016371612503,0.0,0.0,0.0,-2.4124358999999997,0.6962721499999999,9.473223899999999,-0.6465,-0.1175,0.0541,-0.7519,4.176067233511821,-14.27923451904686,98.1002771729469,30.3
76000149066695,10.023715,37509.0,10.0,-0.2466478,-0.07057191999999998,-0.96653388,1.0000016371612503,0.0,0.0,0.0,-2.42224255,0.6962721499999999,9.492837199999999,-0.6465,-0.1175,0.0541,-0.7519,4.176067233511821,-14.27923451904686,98.1002771729469,30.3
76000159067183,10.000488,37519.0,10.0,-0.2466478,-0.07057191999999998,-0.96653388,1.0000016371612503,0.0,0.0,0.0,-2.4124358999999997,0.7060787999999999,9.473223899999999,-0.6465,-0.1175,0.0541,-0.7519,4.176067233511821,-14.27923451904686,98.1002771729469,30.4
76000169064400,9.997217,37529.0,10.0,-0.2466478,-0.07057191999999998,-0.96653388,1.0000016371612503,0.0,0.0,0.0,-2.42224255,0.67665885,9.483030549999999,-0.6465,-0.1175,0.0541,-0.7519,4.176067233511821,-14.27923451904686,98.1002771729469,30.4
76000179099078,10.034678,37539.0,10.0,-0.2466478,-0.07057191999999998,-0.96653388,1.0000016371612503,0.0,0.0,0.0,-2.42224255,0.6962721499999999,9.473223899999999,-0.6465,-0.1175,0.0541,-0.7519,4.176067233511821,-14.27923451904686,98.1002771729469,30.4
76000189048905,9.949827,37549.0,10.0,-0.2466478,-0.07057191999999998,-0.96653388,1.0000016371612503,0.0,0.0,0.0,-2.42224255,0.6962721499999999,9.483030549999999,-0.6465,-0.1175,0.0541,-0.7519,4.176067233511821,-14.27923451904686,98.1002771729469,30.3
76000199031305,9.9824,37559.0,10.0,-0.2466478,-0.07057191999999998,-0.96653388,1.0000016371612503,0.0,0.0,0.0,-2.42224255,0.6864655000000001,9.483030549999999,-0.6465,-0.1175,0.0541,-0.7519,4.176067233511821,-14.27923451904686,98.1002771729469,30.3
76000209101585,10.07028,37569.0,10.0,-0.2466478,-0.07057191999999998,-0.96653388,1.0000016371612503,0.0,0.0,0.0,-2.4124358999999997,0.6962721499999999,9.483030549999999,-0.6465,-0.1175,0.0541,-0.7519,4.176067233511821,-14.27923451904686,98.1002771729469,30.3
76000219100108,9.998523,37579.0,10.0,-0.2466478,-0.07057191999999998,-0.96653388,1.0000016371612503,0.0,0.0,0.0,-2.42224255,0.6864655000000001,9.483030549999999,-0.6465,-0.1175,0.0541,-0.7519,4.176067233511821,-14.27923451904686,98.1002771729469,30.3
76000229040741,9.940633,37589.0,10.0,-0.2466478,-0.07057191999999998,-0.96653388,1.0000016371612503,0.0,0.0,0.0,-2.42224255,0.6962721499999999,9.483030549999999,-0.6465,-0.1175,0.0541,-0.7519,4.176067233511821,-14.27923451904686,98.1002771729469,30.3
76000239048182,10.007441,37599.0,10.0,-0.2466478,-0.07057191999999998,-0.96653388,1.0000016371612503,0.0,0.0,0.0,-2.42224255,0.6962721499999999,9.483030549999999,-0.6465,-0.1175,0.0541,-0.7519,4.176067233511821,-14.27923451904686,98.1002771729469,30.3
76000249152710,10.104528,37609.0,10.0,-0.2466478,-0.07057191999999998,-0.96653388,1.0000016371612503,0.0,0.0,0.0,-2.42224255,0.6962721499999999,9.483030549999999,-0.6465,-0.1175,0.0541,-0.7519,4.176067233511821,-14.27923451904686,98.1002771729469,30.3
76000259110355,9.957645,37619.0,10.0,-0.2466478,-0.07057191999999998,-0.96653388,1.0000016371612503,0.0,0.0,0.0,-2.42224255,0.6864655000000001,9.483030549999999,-0.6465,-0.1175,0.0541,-0.7519,4.176067233511821,-14.27923451904686,98.1002771729469,30.3
76000269045285,9.93493,37629.0,10.0,-0.2466478,-0.07057191999999998,-0.96653388,1.0000016371612503,0.0,0.0,0.0,-2.4320492,0.67665885,9.46341725,-0.6465,-0.1175,0.0541,-0.7519,4.176067233511821,-14.27923451904686,98.1002771729469,30.3
76000279041302,9.996017,37639.0,10.0,-0.2466478,-0.07057191999999998,-0.96653388,1.0000016371612503,0.0,0.0,0.0,-2.42224255,0.6864655000000001,9.473223899999999,-0.6465,-0.1175,0.0541,-0.7519,4.176067233511821,-14.27923451904686,98.1002771729469,30.3
76000289033639,9.992337,37649.0,10.0,-0.2466478,-0.07057191999999998,-0.96653388,1.0000016371612503,0.0,0.0,0.0,-2.42224255,0.6864655000000001,9.483030549999999,-0.6465,-0.1175,0.0541,-0.7519,4.176067233511821,-14.27923451904686,98.1002771729469,30.3
76000299123435,10.089796,37659.0,10.0,-0.2466478,-0.07057191999999998,-0.96653388,1.0000016371612503,0.0,0.0,0.0,-2.42224255,0.6962721499999999,9.483030549999999,-0.6465,-0.1175,0.0541,-0.7519,4.176067233511821,-14.27923451904686,98.1002771729469,30.3
76000309135235,10.0118,37669.0,10.0,-0.2466478,-0.07057191999999998,-0.96653388,1.0000016371612503,0.0,0.0,0.0,-2.4124358999999997,0.6962721499999999,9.473223899999999,-0.6465,-0.1175,0.0541,-0.7519,4.176067233511821,-14.27923451904686,98.1002771729469,30.3
76000319100719,9.965484,37679.0,10.0,-0.2466478,-0.07057191999999998,-0.96653388,1.0000016371612503,0.0,0.0,0.0,-2.4124358999999997,0.6864655000000001,9.473223899999999,-0.6465,-0.1175,0.0541,-0.7519,4.176067233511821,-14.27923451904686,98.1002771729469,30.3
76000329102467,10.001748,37689.0,10.0,-0.2466478,-0.07057191999999998,-0.96653388,1.0000016371612503,0.0,0.0,0.0,-2.42224255,0.6962721499999999,9.483030549999999,-0.6465,-0.1175,0.0541,-0.7519,4.176067233511821,-14.27923451904686,98.1002771729469,30.3
76000339034573,9.932106,37699.0,10.0,-0.2466478,-0.07057191999999998,-0.96653388,1.0000016371612503,0.0,0.0,0.0,-2.42224255,0.6962721499999999,9.483030549999999,-0.6465,-0.1175,0.0541,-0.7519,4.176067233511821,-14.27923451904686,98.1002771729469,30.3
76000348981610,9.947037,37709.0,10.0,-0.2466478,-0.07057191999999998,-0.96653388,1.0000016371612503,0.0,0.0,0.0,-2.42224255,0.6864655000000001,9.483030549999999,-0.6465,-0.1175,0.0541,-0.7519,4.176067233511821,-14.27923451904686,98.1002771729469,30.3
76000358979076,9.997466,37719.0,10.0,-0.2466478,-0.07057191999999998,-0.96653388,1.0000016371612503,0.0,0.0,0.0,-2.42224255,0.6962721499999999,9.483030549999999,-0.6465,-0.1175,0.0541,-0.7519,4.176067233511821,-14.27923451904686,98.1002771729469,30.3
76000368953134,9.974058,37729.0,10.0,-0.2466478,-0.07057191999999998,-0.96653388,1.0000016371612503,0.0,0.0,0.0,-2.4320492,0.6962721499999999,9.483030549999999,-0.6465,-0.1175,0.0541,-0.7519,4.176067233511821,-14.27923451904686,98.1002771729469,30.3
76000378971799,10.018665,37739.0,10.0,-0.2466478,-0.07057191999999998,-0.96653388,1.0000016371612503,0.0,0.0,0.0,-2.42224255,0.67665885,9.483030549999999,-0.6465,-0.1175,0.0541,-0.7519,4.176067233511821,-14.27923451904686,98.1002771729469,30.4
76000388995992,10.024193,37749.0,10.0,-0.2466478,-0.07057191999999998,-0.96653388,1.0000016371612503,0.0,0.0,0.0,-2.4124358999999997,0.6864655000000001,9.483030549999999,-0.6465,-0.1175,0.0541,-0.7519,4.176067233511821,-14.27923451904686,98.1002771729469,30.4
76000398987395,9.991403,37759.0,10.0,-0.2466478,-0.07057191999999998,-0.96653388,1.0000016371612503,0.0,0.0,0.0,-2.4124358999999997,0.6864655000000001,9.473223899999999,-0.6465,-0.1175,0.0541,-0.7519,4.176067233511821,-14.27923451904686,98.1002771729469,30.4
76000409090856,10.103461,37769.0,10.0,-0.2466478,-0.07057191999999998,-0.96653388,1.0000016371612503,0.0,0.0,0.0,-2.42224255,0.6962721499999999,9.483030549999999,-0.6465,-0.1175,0.0541,-0.7519,4.176067233511821,-14.27923451904686,98.1002771729469,30.4
76000419036813,9.945957,37779.0,10.0,-0.2466478,-0.07057191999999998,-0.96653388,1.0000016371612503,0.0,0.0,0.0,-2.4320492,0.6962721499999999,9.483030549999999,-0.6465,-0.1175,0.0541,-0.7519,4.176067233511821,-14.27923451904686,98.1002771729469,30.4
76000429075064,10.038251,37789.0,10.0,-0.2466478,-0.07057191999999998,-0.96653388,1.0000016371612503,0.0,0.0,0.0,-2.42224255,0.6962721499999999,9.473223899999999,-0.6465,-0.1175,0.0541,-0.7519,4.176067233511821,-14.27923451904686,98.1002771729469,30.3
76000439068655,9.993591,37799.0,10.0,-0.2466478,-0.07057191999999998,-0.96653388,1.0000016371612503,0.0,0.0,0.0,-2.4124358999999997,0.6864655000000001,9.473223899999999,-0.6465,-0.1175,0.0541,-0.7519,4.176067233511821,-14.27923451904686,98.1002771729469,30.3
76000449036218,9.967563,37809.0,10.0,-0.2466478,-0.07057191999999998,-0.96653388,1.0000016371612503,0.0,0.0,0.0,-2.42224255,0.6962721499999999,9.473223899999999,-0.6465,-0.1175,0.0541,-0.7519,4.176067233511821,-14.27923451904686,98.1002771729469,30.3
76000459017204,9.980986,37819.0,10.0,-0.2466478,-0.07057191999999998,-0.96653388,1.0000016371612503,0.0,0.0,0.0,-2.4320492,0.6864655000000001,9.483030549999999,-0.6465,-0.1175,0.0541,-0.7519,4.176067233511821,-14.27923451904686,98.1002771729469,30.4
76000469097142,10.079938,37829.0,10.0,-0.2466478,-0.07057191999999998,-0.96653388,1.0000016371612503,0.0,0.0,0.0,-2.4124358999999997,0.6962721499999999,9.483030549999999,-0.6465,-0.1175,0.0541,-0.7519,4.176067233511821,-14.27923451904686,98.1002771729469,30.4
76000479038303,9.941161,37839.0,10.0,-0.2466478,-0.07057191999999998,-0.96653388,1.0000016371612503,0.0,0.0,0.0,-2.4124358999999997,0.6864655000000001,9.473223899999999,-0.6465,-0.1175,0.0541,-0.7519,4.176067233511821,-14.27923451904686,98.1002771729469,30.4
76000489014039,9.975736,37849.0,10.0,-0.2466478,-0.07057191999999998,-0.96653388,1.0000016371612503,0.0,0.0,0.0,-2.4124358999999997,0.6864655000000001,9.483030549999999,-0.6465,-0.1175,0.0541,-0.7519,4.176067233511821,-14.27923451904686,98.1002771729469,30.3
76000499024156,10.010117,37859.0,10.0,-0.2466478,-0.07057191999999998,-0.96653388,1.0000016371612503,0.0,0.0,0.0,-2.42224255,0.67665885,9.483030549999999,-0.6465,-0.1175,0.0541,-0.7519,4.176067233511821,-14.27923451904686,98.1002771729469,30.3
76000509078146,10.05399,37869.0,10.0,-0.2466478,-0.07057191999999998,-0.96653388,1.0000016371612503,0.0,0.0,0.0,-2.42224255,0.6864655000000001,9.483030549999999,-0.6465,-0.1175,0.0541,-0.7519,4.176067233511821,-14.27923451904686,98.1002771729469,30.3
76000519088956,10.01081,37879.0,10.0,-0.2466478,-0.07057191999999998,-0.96653388,1.0000016371612503,0.0,0.0,0.0,-2.4124358999999997,0.6962721499999999,9.483030549999999,-0.6465,-0.1175,0.0541,-0.7519,4.176067233511821,-14.27923451904686,98.1002771729469,30.3
76000529071775,9.982819,37889.0,10.0,-0.2466478,-0.07057191999999998,-0.96653388,1.0000016371612503,0.0,0.0,0.0,-2.42224255,0.6864655000000001,9.473223899999999,-0.6465,-0.1175,0.0541,-0.7519,4.176067233511821,-14.27923451904686,98.1002771729469,30.3
76000539083493,10.011718,37899.0,10.0,-0.2466478,-0.07057191999999998,-0.96653388,1.0000016371612503,0.0,0.0,0.0,-2.4124358999999997,0.6962721499999999,9.473223899999999,-0.6465,-0.1175,0.0541,-0.7519,4.176067233511821,-14.27923451904686,98.1002771729469,30.3
76000549076946,9.993453,37909.0,10.0,-0.2466478,-0.07057191999999998,-0.96653388,1.0000016371612503,0.0,0.0,0.0,-2.4124358999999997,0.6962721499999999,9.483030549999999,-0.6465,-0.1175,0.0541,-0.7519,4.176067233511821,-14.27923451904686,98.1002771729469,30.4
76000559076983,10.000037,37919.0,10.0,-0.2466478,-0.07057191999999998,-0.96653388,1.0000016371612503,0.0,0.0,0.0,-2.4124358999999997,0.6962721499999999,9.473223899999999,-0.6465,-0.1175,0.0541,-0.7519,4.176067233511821,-14.27923451904686,98.1002771729469,30.3
76000569080436,10.003453,37929.0,10.0,-0.2466478,-0.07057191999999998,-0.96653388,1.0000016371612503,0.0,0.0,0.0,-2.4124358999999997,0.6962721499999999,9.473223899999999,-0.6465,-0.1175,0.0541,-0.7519,4.176067233511821,-14.27923451904686,98.1002771729469,30.4
76000579040566,9.96013,37939.0,10.0,-0.2466478,-0.07057191999999998,-0.96653388,1.0000016371612503,0.0,0.0,0.0,-2.42224255,0.6864655000000001,9.473223899999999,-0.6465,-0.1175,0.0541,-0.7519,4.176067233511821,-14.27923451904686,98.1002771729469,30.3
76000588994401,9.953835,37949.0,10.0,-0.2466478,-0.07057191999999998,-0.96653388,1.0000016371612503,0.0,0.0,0.0,-2.42224255,0.6962721499999999,9.483030549999999,-0.6465,-0.1175,0.0541,-0.7519,4.176067233511821,-14.27923451904686,98.1002771729469,30.4
76000599092242,10.097841,37959.0,10.0,-0.2466478,-0.07057191999999998,-0.96653388,1.0000016371612503,0.0,0.0,0.0,-2.4124358999999997,0.6864655000000001,9.473223899999999,-0.6465,-0.1175,0.0541,-0.7519,4.176067233511821,-14.27923451904686,98.1002771729469,30.4
76000609040908,9.948666,37969.0,10.0,-0.2466478,-0.07057191999999998,-0.96653388,1.0000016371612503,0.0,0.0,0.0,-2.42224255,0.67665885,9.483030549999999,-0.6465,-0.1175,0.0541,-0.7519,4.176067233511821,-14.27923451904686,98.1002771729469,30.4
76000619090397,10.049489,37979.0,10.0,-0.2466478,-0.07057191999999998,-0.96653388,1.0000016371612503,0.0,0.0,0.0,-2.4124358999999997,0.6864655000000001,9.473223899999999,-0.6465,-0.1175,0.0541,-0.7519,4.176067233511821,-14.27923451904686,98.1002771729469,30.3
76000629085744,9.995347,37989.0,10.0,-0.2466478,-0.07057191999999998,-0.96653388,1.0000016371612503,0.0,0.0,0.0,-2.42224255,0.6864655000000001,9.483030549999999,-0.6465,-0.1175,0.0541,-0.7519,4.176067233511821,-14.27923451904686,98.1002771729469,30.3
76000639075225,9.989481,37999.0,10.0,-0.2466478,-0.07057191999999998,-0.96653388,1.0000016371612503,0.0,0.0,0.0,-2.4124358999999997,0.6962721499999999,9.473223899999999,-0.6465,-0.1175,0.0541,-0.7519,4.176067233511821,-14.27923451904686,98.1002771729469,30.3
76000649076944,10.001719,38009.0,10.0,-0.2466478,-0.07057191999999998,-0.96653388,1.0000016371612503,0.0,0.0,0.0,-2.42224255,0.6864655000000001,9.473223899999999,-0.6465,-0.1175,0.0541,-0.7519,4.176067233511821,-14.27923451904686,98.1002771729469,30.3
76000659055957,9.979013,38019.0,10.0,-0.2466478,-0.07057191999999998,-0.96653388,1.0000016371612503,0.0,0.0,0.0,-2.42224255,0.6864655000000001,9.483030549999999,-0.6465,-0.1175,0.0541,-0.7519,4.176067233511821,-14.27923451904686,98.1002771729469,30.3
76000669024890,9.968933,38029.0,10.0,-0.2466478,-0.07057191999999998,-0.96653388,1.0000016371612503,0.0,0.0,0.0,-2.42224255,0.6962721499999999,9.473223899999999,-0.6465,-0.1175,0.0541,-0.7519,4.176067233511821,-14.27923451904686,98.1002771729469,30.3
76000679039392,10.014502,38039.0,10.0,-0.2466478,-0.07057191999999998,-0.96653388,1.0000016371612503,0.0,0.0,0.0,-2.4124358999999997,0.6864655000000001,9.483030549999999,-0.6465,-0.1175,0.0541,-0.7519,4.176067233511821,-14.27923451904686,98.1002771729469,30.3
76000689042674,10.003282,38049.0,10.0,-0.2466478,-0.07057191999999998,-0.96653388,1.0000016371612503,0.0,0.0,0.0,-2.42224255,0.6864655000000001,9.46341725,-0.6465,-0.1175,0.0541,-0.7519,4.176067233511821,-14.27923451904686,98.1002771729469,30.3
76000699083120,10.040446,38059.0,10.0,-0.2466478,-0.07057191999999998,-0.96653388,1.0000016371612503,0.0,0.0,0.0,-2.4124358999999997,0.6864655000000001,9.483030549999999,-0.6465,-0.1175,0.0541,-0.7519,4.176067233511821,-14.27923451904686,98.1002771729469,30.3
76000709081611,9.998491,38069.0,10.0,-0.2466478,-0.07057191999999998,-0.96653388,1.0000016371612503,0.0,0.0,0.0,-2.4124358999999997,0.6864655000000001,9.483030549999999,-0.6465,-0.1175,0.0541,-0.7519,4.176067233511821,-14.27923451904686,98.1002771729469,30.3
76000719082769,10.001158,38079.0,10.0,-0.2466478,-0.07057191999999998,-0.96653388,1.0000016371612503,0.0,0.0,0.0,-2.4124358999999997,0.6962721499999999,9.483030549999999,-0.6465,-0.1175,0.0541,-0.7519,4.176067233511821,-14.27923451904686,98.1002771729469,30.3
76000729129387,10.046618,38089.0,10.0,-0.2466478,-0.07057191999999998,-0.96653388,1.0000016371612503,0.0,0.0,0.0,-2.42224255,0.6962721499999999,9.492837199999999,-0.6465,-0.1175,0.0541,-0.7519,4.176067233511821,-14.27923451904686,98.1002771729469,30.4
76000739238411,10.109024,38099.0,10.0,-0.2466478,-0.07057191999999998,-0.96653388,1.0000016371612503,0.0,0.0,0.0,-2.4320492,0.6864655000000001,9.483030549999999,-0.6465,-0.1175,0.0541,-0.7519,4.176067233511821,-14.27923451904686,98.1002771729469,30.3
76000749123440,9.885029,38109.0,10.0,-0.2466478,-0.07057191999999998,-0.96653388,1.0000016371612503,0.0,0.0,0.0,-2.42224255,0.6864655000000001,9.473223899999999,-0.6465,-0.1175,0.0541,-0.7519,4.176067233511821,-14.27923451904686,98.1002771729469,30.3
76000759125026,10.001586,38119.0,10.0,-0.2466478,-0.07057191999999998,-0.96653388,1.0000016371612503,0.0,0.0,0.0,-2.4320492,0.6962721499999999,9.473223899999999,-0.6465,-0.1175,0.0541,-0.7519,4.176067233511821,-14.27923451904686,98.1002771729469,30.3
76000769116189,9.991163,38129.0,10.0,-0.2466478,-0.07057191999999998,-0.96653388,1.0000016371612503,0.0,0.0,0.0,-2.4124358999999997,0.7060787999999999,9.473223899999999,-0.6465,-0.1175,0.0541,-0.7519,4.176067233511821,-14.27923451904686,98.1002771729469,30.3
76000779135728,10.019539,38139.0,10.0,-0.2466478,-0.07057191999999998,-0.96653388,1.0000016371612503,0.0,0.0,0.0,-2.4320492,0.6864655000000001,9.483030549999999,-0.6465,-0.1175,0.0541,-0.7519,4.176067233511821,-14.27923451904686,98.1002771729469,30.3
76000789041804,9.906076,38149.0,10.0,-0.2466478,-0.07057191999999998,-0.96653388,1.0000016371612503,0.0,0.0,0.0,-2.4320492,0.6962721499999999,9.473223899999999,-0.6465,-0.1175,0.0541,-0.7519,4.176067233511821,-14.27923451904686,98.1002771729469,30.3
76000799043536,10.001732,38159.0,10.0,-0.2466478,-0.07057191999999998,-0.96653388,1.0000016371612503,0.0,0.0,0.0,-2.44185585,0.6962721499999999,9.473223899999999,-0.6465,-0.1175,0.0541,-0.7519,4.176067233511821,-14.27923451904686,98.1002771729469,30.3
76000809085275,10.041739,38169.0,10.0,-0.2466478,-0.07057191999999998,-0.96653388,1.0000016371612503,0.0,0.0,0.0,-2.42224255,0.6962721499999999,9.483030549999999,-0.6465,-0.1175,0.0541,-0.7519,4.176067233511821,-14.27923451904686,98.1002771729469,30.3
76000819054567,9.969292,38179.0,10.0,-0.2466478,-0.07057191999999998,-0.96653388,1.0000016371612503,0.0,0.0,0.0,-2.4320492,0.6864655000000001,9.473223899999999,-0.6465,-0.1175,0.0541,-0.7519,4.176067233511821,-14.27923451904686,98.1002771729469,30.4
76000829028925,9.974358,38189.0,10.0,-0.2466478,-0.07057191999999998,-0.96653388,1.0000016371612503,0.0,0.0,0.0,-2.44185585,0.6962721499999999,9.473223899999999,-0.6465,-0.1175,0.0541,-0.7519,4.176067233511821,-14.27923451904686,98.1002771729469,30.3
76000838973255,9.94433,38199.0,10.0,-0.2466478,-0.07057191999999998,-0.96653388,1.0000016371612503,0.0,0.0,0.0,-2.40262925,0.6962721499999999,9.483030549999999,-0.6465,-0.1175,0.0541,-0.7519,4.176067233511821,-14.27923451904686,98.1002771729469,30.3
76000849095515,10.12226,38209.0,10.0,-0.2466478,-0.07057191999999998,-0.96653388,1.0000016371612503,0.0,0.0,0.0,-2.4124358999999997,0.6962721499999999,9.483030549999999,-0.6465,-0.1175,0.0541,-0.7519,4.176067233511821,-14.27923451904686,98.1002771729469,30.4
76000859039720,9.944205,38219.0,10.0,-0.2466478,-0.07057191999999998,-0.96653388,1.0000016371612503,0.0,0.0,0.0,-2.4320492,0.6864655000000001,9.473223899999999,-0.6465,-0.1175,0.0541,-0.7519,4.176067233511821,-14.27923451904686,98.1002771729469,30.4
76000869079915,10.040195,38229.0,10.0,-0.2466478,-0.07057191999999998,-0.96653388,1.0000016371612503,0.0,0.0,0.0,-2.42224255,0.6864655000000001,9.483030549999999,-0.6465,-0.1175,0.0541,-0.7519,4.176067233511821,-14.27923451904686,98.1002771729469,30.4
76000879074109,9.994194,38239.0,10.0,-0.2466478,-0.07057191999999998,-0.96653388,1.0000016371612503,0.0,0.0,0.0,-2.4124358999999997,0.6962721499999999,9.492837199999999,-0.6465,-0.1175,0.0541,-0.7519,4.176067233511821,-14.27923451904686,98.1002771729469,30.4
76000889020211,9.946102,38249.0,10.0,-0.2466478,-0.07057191999999998,-0.96653388,1.0000016371612503,0.0,0.0,0.0,-2.44185585,0.6864655000000001,9.483030549999999,-0.6465,-0.1175,0.0541,-0.7519,4.176067233511821,-14.27923451904686,98.1002771729469,30.3
76000899061562,10.041351,38259.0,10.0,-0.2466478,-0.07057191999999998,-0.96653388,1.0000016371612503,0.0,0.0,0.0,-2.4124358999999997,0.67665885,9.483030549999999,-0.6465,-0.1175,0.0541,-0.7519,4.176067233511821,-14.27923451904686,98.1002771729469,30.3
76000909031985,9.970423,38269.0,10.0,-0.2466478,-0.07057191999999998,-0.96653388,1.0000016371612503,0.0,0.0,0.0,-2.4124358999999997,0.6962721499999999,9.483030549999999,-0.6465,-0.1175,0.0541,-0.7519,4.176067233511821,-14.27923451904686,98.1002771729469,30.3
76000919078932,10.046947,38279.0,10.0,-0.2466478,-0.07057191999999998,-0.96653388,1.0000016371612503,0.0,0.0,0.0,-2.4124358999999997,0.6864655000000001,9.46341725,-0.6465,-0.1175,0.0541,-0.7519,4.176067233511821,-14.27923451904686,98.1002771729469,30.4
76000929078885,9.999953,38289.0,10.0,-0.2466478,-0.07057191999999998,-0.96653388,1.0000016371612503,0.0,0.0,0.0,-2.4320492,0.6962721499999999,9.483030549999999,-0.6465,-0.1175,0.0541,-0.7519,4.176067233511821,-14.27923451904686,98.1002771729469,30.3
76000939077043,9.998158,38299.0,10.0,-0.2466478,-0.07057191999999998,-0.96653388,1.0000016371612503,0.0,0.0,0.0,-2.4320492,0.6864655000000001,9.473223899999999,-0.6465,-0.1175,0.0541,-0.7519,4.176067233511821,-14.27923451904686,98.1002771729469,30.3
76000949018084,9.941041,38309.0,10.0,-0.2466478,-0.07057191999999998,-0.96653388,1.0000016371612503,0.0,0.0,0.0,-2.42224255,0.6962721499999999,9.483030549999999,-0.6465,-0.1175,0.0541,-0.7519,4.176067233511821,-14.27923451904686,98.1002771729469,30.4
76000959082672,10.064588,38319.0,10.0,-0.2466478,-0.07057191999999998,-0.96653388,1.0000016371612503,0.0,0.0,0.0,-2.4124358999999997,0.6864655000000001,9.483030549999999,-0.6465,-0.1175,0.0541,-0.7519,4.176067233511821,-14.27923451904686,98.1002771729469,30.3
76000969081911,9.999239,38329.0,10.0,-0.2466478,-0.07057191999999998,-0.96653388,1.0000016371612503,0.0,0.0,0.0,-2.4124358999999997,0.6864655000000001,9.483030549999999,-0.6465,-0.1175,0.0541,-0.7519,4.176067233511821,-14.27923451904686,98.1002771729469,30.3
76000979118892,10.036981,38339.0,10.0,-0.2466478,-0.07057191999999998,-0.96653388,1.0000016371612503,0.0,0.0,0.0,-2.4124358999999997,0.6864655000000001,9.492837199999999,-0.6465,-0.1175,0.0541,-0.7519,4.176067233511821,-14.27923451904686,98.1002771729469,30.4
76000989028524,9.909632,38349.0,10.0,-0.2466478,-0.07057191999999998,-0.96653388,1.0000016371612503,0.0,0.0,0.0,-2.42224255,0.6864655000000001,9.492837199999999,-0.6465,-0.1175,0.0541,-0.7519,4.176067233511821,-14.27923451904686,98.1002771729469,30.3
76000999013211,9.984687,38359.0,10.0,-0.2466478,-0.07057191999999998,-0.96653388,1.0000016371612503,0.0,0.0,0.0,-2.42224255,0.6962721499999999,9.492837199999999,-0.6465,-0.1175,0.0541,-0.7519,4.176067233511821,-14.27923451904686,98.1002771729469,30.4
76001009057648,10.044437,38369.0,10.0,-0.2466478,-0.07057191999999998,-0.96653388,1.0000016371612503,0.0,0.0,0.0,-2.42224255,0.6962721499999999,9.492837199999999,-0.6465,-0.1175,0.0541,-0.7519,4.176067233511821,-14.27923451904686,98.1002771729469,30.4
76001019106136,10.048488,38379.0,10.0,-0.2466478,-0.07057191999999998,-0.96653388,1.0000016371612503,0.0,0.0,0.0,-2.4320492,0.6864655000000001,9.483030549999999,-0.6465,-0.1175,0.0541,-0.7519,4.176067233511821,-14.27923451904686,98.1002771729469,30.4
76001029085012,9.978876,38389.0,10.0,-0.2466478,-0.07057191999999998,-0.96653388,1.0000016371612503,0.0,0.0,0.0,-2.42224255,0.6962721499999999,9.483030549999999,-0.6465,-0.1175,0.0541,-0.7519,4.176067233511821,-14.27923451904686,98.1002771729469,30.4
76001039080036,9.995024,38399.0,10.0,-0.2466478,-0.07057191999999998,-0.96653388,1.0000016371612503,0.0,0.0,0.0,-2.40262925,0.6864655000000001,9.473223899999999,-0.6465,-0.1175,0.0541,-0.7519,4.176067233511821,-14.27923451904686,98.1002771729469,30.3
76001049100247,10.020211,38409.0,10.0,-0.2466478,-0.07057191999999998,-0.96653388,1.0000016371612503,0.0,0.0,0.0,-2.42224255,0.7060787999999999,9.483030549999999,-0.6465,-0.1175,0.0541,-0.7519,4.176067233511821,-14.27923451904686,98.1002771729469,30.4
76001059087349,9.987102,38419.0,10.0,-0.2466478,-0.07057191999999998,-0.96653388,1.0000016371612503,0.0,0.0,0.0,-2.4124358999999997,0.6864655000000001,9.492837199999999,-0.6465,-0.1175,0.0541,-0.7519,4.176067233511821,-14.27923451904686,98.1002771729469,30.4
76001069089599,10.00225,38429.0,10.0,-0.2466478,-0.07057191999999998,-0.96653388,1.0000016371612503,0.0,0.0,0.0,-2.42224255,0.6962721499999999,9.483030549999999,-0.6465,-0.1175,0.0541,-0.7519,4.176067233511821,-14.27923451904686,98.1002771729469,30.3
76001079060678,9.971079,38439.0,10.0,-0.2466478,-0.07057191999999998,-0.96653388,1.0000016371612503,0.0,0.0,0.0,-2.4320492,0.6864655000000001,9.473223899999999,-0.6465,-0.1175,0.0541,-0.7519,4.176067233511821,-14.27923451904686,98.1002771729469,30.4
76001089087936,10.027258,38449.0,10.0,-0.2466478,-0.07057191999999998,-0.96653388,1.0000016371612503,0.0,0.0,0.0,-2.42224255,0.6864655000000001,9.483030549999999,-0.6465,-0.1175,0.0541,-0.7519,4.176067233511821,-14.27923451904686,98.1002771729469,30.4
76001099063317,9.975381,38459.0,10.0,-0.2466478,-0.07057191999999998,-0.96653388,1.0000016371612503,0.0,0.0,0.0,-2.4124358999999997,0.6864655000000001,9.492837199999999,-0.6465,-0.1175,0.0541,-0.7519,4.176067233511821,-14.27923451904686,98.1002771729469,30.4
76001109090776,10.027459,38469.0,10.0,-0.2466478,-0.07057191999999998,-0.96653388,1.0000016371612503,0.0,0.0,0.0,-2.42224255,0.6864655000000001,9.483030549999999,-0.6465,-0.1175,0.0541,-0.7519,4.176067233511821,-14.27923451904686,98.1002771729469,30.4
76001119085882,9.995106,38479.0,10.0,-0.2466478,-0.07057191999999998,-0.96653388,1.0000016371612503,0.0,0.0,0.0,-2.42224255,0.6864655000000001,9.473223899999999,-0.6465,-0.1175,0.0541,-0.7519,4.176067233511821,-14.27923451904686,98.1002771729469,30.4
76001129107255,10.021373,38489.0,10.0,-0.2466478,-0.07057191999999998,-0.96653388,1.0000016371612503,0.0,0.0,0.0,-2.42224255,0.6962721499999999,9.473223899999999,-0.6465,-0.1175,0.0541,-0.7519,4.176067233511821,-14.27923451904686,98.1002771729469,30.4
76001139061239,9.953984,38499.0,10.0,-0.2466478,-0.07057191999999998,-0.96653388,1.0000016371612503,0.0,0.0,0.0,-2.42224255,0.6962721499999999,9.473223899999999,-0.6465,-0.1175,0.0541,-0.7519,4.176067233511821,-14.27923451904686,98.1002771729469,30.4
76001149069034,10.007795,38509.0,10.0,-0.2466478,-0.07057191999999998,-0.96653388,1.0000016371612503,0.0,0.0,0.0,-2.4124358999999997,0.6962721499999999,9.483030549999999,-0.6465,-0.1175,0.0541,-0.7519,4.176067233511821,-14.27923451904686,98.1002771729469,30.4
76001159136791,10.067757,38519.0,10.0,-0.2466478,-0.07057191999999998,-0.96653388,1.0000016371612503,0.0,0.0,0.0,-2.42224255,0.6962721499999999,9.473223899999999,-0.6465,-0.1175,0.0541,-0.7519,4.176067233511821,-14.27923451904686,98.1002771729469,30.4
76001169100755,9.963964,38529.0,10.0,-0.2466478,-0.07057191999999998,-0.96653388,1.0000016371612503,0.0,0.0,0.0,-2.4124358999999997,0.6962721499999999,9.473223899999999,-0.6465,-0.1175,0.0541,-0.7519,4.176067233511821,-14.27923451904686,98.1002771729469,30.4
76001179140272,10.039517,38539.0,10.0,-0.2466478,-0.07057191999999998,-0.96653388,1.0000016371612503,0.0,0.0,0.0,-2.42224255,0.6864655000000001,9.492837199999999,-0.6465,-0.1175,0.0541,-0.7519,4.176067233511821,-14.27923451904686,98.1002771729469,30.4
76001189113792,9.97352,38549.0,10.0,-0.2466478,-0.07057191999999998,-0.96653388,1.0000016371612503,0.0,0.0,0.0,-2.4124358999999997,0.6962721499999999,9.483030549999999,-0.6465,-0.1175,0.0541,-0.7519,4.176067233511821,-14.27923451904686,98.1002771729469,30.4
76001199081742,9.96795,38559.0,10.0,-0.2466478,-0.07057191999999998,-0.96653388,1.0000016371612503,0.0,0.0,0.0,-2.4124358999999997,0.6962721499999999,9.483030549999999,-0.6465,-0.1175,0.0541,-0.7519,4.176067233511821,-14.27923451904686,98.1002771729469,30.4
76001209092713,10.010971,38569.0,10.0,-0.2466478,-0.07057191999999998,-0.96653388,1.0000016371612503,0.0,0.0,0.0,-2.42224255,0.6864655000000001,9.46341725,-0.6465,-0.1175,0.0541,-0.7519,4.176067233511821,-14.27923451904686,98.1002771729469,30.3
76001219049034,9.956321,38579.0,10.0,-0.2466478,-0.07057191999999998,-0.96653388,1.0000016371612503,0.0,0.0,0.0,-2.4124358999999997,0.6962721499999999,9.483030549999999,-0.6465,-0.1175,0.0541,-0.7519,4.176067233511821,-14.27923451904686,98.1002771729469,30.3
76001229029931,9.980897,38589.0,10.0,-0.2466478,-0.07057191999999998,-0.96653388,1.0000016371612503,0.0,0.0,0.0,-2.4320492,0.6962721499999999,9.483030549999999,-0.6465,-0.1175,0.0541,-0.7519,4.176067233511821,-14.27923451904686,98.1002771729469,30.3
76001239051669,10.021738,38599.0,10.0,-0.2466478,-0.07057191999999998,-0.96653388,1.0000016371612503,0.0,0.0,0.0,-2.42224255,0.6864655000000001,9.483030549999999,-0.6465,-0.1175,0.0541,-0.7519,4.176067233511821,-14.27923451904686,98.1002771729469,30.4
76001249076220,10.024551,38609.0,10.0,-0.2466478,-0.07057191999999998,-0.96653388,1.0000016371612503,0.0,0.0,0.0,-2.4124358999999997,0.6864655000000001,9.473223899999999,-0.6465,-0.1175,0.0541,-0.7519,4.176067233511821,-14.27923451904686,98.1002771729469,30.4
76001259065036,9.988816,38619.0,10.0,-0.2466478,-0.07057191999999998,-0.96653388,1.0000016371612503,0.0,0.0,0.0,-2.42224255,0.6864655000000001,9.492837199999999,-0.6465,-0.1175,0.0541,-0.7519,4.176067233511821,-14.27923451904686,98.1002771729469,30.4
76001269011657,9.946621,38629.0,10.0,-0.2466478,-0.07057191999999998,-0.96653388,1.0000016371612503,0.0,0.0,0.0,-2.42224255,0.7060787999999999,9.483030549999999,-0.6465,-0.1175,0.0541,-0.7519,4.176067233511821,-14.27923451904686,98.1002771729469,30.3
76001279023501,10.011844,38639.0,10.0,-0.2466478,-0.07057191999999998,-0.96653388,1.0000016371612503,0.0,0.0,0.0,-2.4124358999999997,0.7060787999999999,9.483030549999999,-0.6465,-0.1175,0.0541,-0.7519,4.176067233511821,-14.27923451904686,98.1002771729469,30.3
76001288985039,9.961538,38649.0,10.0,-0.2466478,-0.07057191999999998,-0.96653388,1.0000016371612503,0.0,0.0,0.0,-2.4124358999999997,0.7060787999999999,9.473223899999999,-0.6465,-0.1175,0.0541,-0.7519,4.176067233511821,-14.27923451904686,98.1002771729469,30.4
76001299024528,10.039489,38659.0,10.0,-0.2466478,-0.07057191999999998,-0.96653388,1.0000016371612503,0.0,0.0,0.0,-2.42224255,0.6864655000000001,9.483030549999999,-0.6465,-0.1175,0.0541,-0.7519,4.176067233511821,-14.27923451904686,98.1002771729469,30.3
76001309063779,10.039251,38669.0,10.0,-0.2466478,-0.07057191999999998,-0.96653388,1.0000016371612503,0.0,0.0,0.0,-2.42224255,0.6962721499999999,9.483030549999999,-0.6465,-0.1175,0.0541,-0.7519,4.176067233511821,-14.27923451904686,98.1002771729469,30.3
76001319100545,10.036766,38679.0,10.0,-0.2466478,-0.07057191999999998,-0.96653388,1.0000016371612503,0.0,0.0,0.0,-2.4320492,0.7060787999999999,9.473223899999999,-0.6465,-0.1175,0.0541,-0.7519,4.176067233511821,-14.27923451904686,98.1002771729469,30.4
76001329054443,9.953898,38689.0,10.0,-0.2466478,-0.07057191999999998,-0.96653388,1.0000016371612503,0.0,0.0,0.0,-2.4124358999999997,0.6962721499999999,9.473223899999999,-0.6465,-0.1175,0.0541,-0.7519,4.176067233511821,-14.27923451904686,98.1002771729469,30.4
76001339059355,10.004912,38699.0,10.0,-0.2466478,-0.07057191999999998,-0.96653388,1.0000016371612503,0.0,0.0,0.0,-2.42224255,0.67665885,9.502643849999998,-0.6465,-0.1175,0.0541,-0.7519,4.176067233511821,-14.27923451904686,98.1002771729469,30.4
76001349021203,9.961848,38709.0,10.0,-0.2466478,-0.07057191999999998,-0.96653388,1.0000016371612503,0.0,0.0,0.0,-2.4124358999999997,0.6864655000000001,9.473223899999999,-0.6465,-0.1175,0.0541,-0.7519,4.176067233511821,-14.27923451904686,98.1002771729469,30.4
76001359105671,10.084468,38719.0,10.0,-0.2466478,-0.07057191999999998,-0.96653388,1.0000016371612503,0.0,0.0,0.0,-2.4124358999999997,0.6962721499999999,9.473223899999999,-0.6465,-0.1175,0.0541,-0.7519,4.176067233511821,-14.27923451904686,98.1002771729469,30.4
76001369075700,9.970029,38729.0,10.0,-0.2466478,-0.07057191999999998,-0.96653388,1.0000016371612503,0.0,0.0,0.0,-2.40262925,0.6962721499999999,9.473223899999999,-0.6465,-0.1175,0.0541,-0.7519,4.176067233511821,-14.27923451904686,98.1002771729469,30.4
76001379038359,9.962659,38739.0,10.0,-0.2466478,-0.07057191999999998,-0.96653388,1.0000016371612503,0.0,0.0,0.0,-2.40262925,0.6962721499999999,9.473223899999999,-0.6465,-0.1175,0.0541,-0.7519,4.176067233511821,-14.27923451904686,98.1002771729469,30.4
76001388997076,9.958717,38749.0,10.0,-0.2466478,-0.07057191999999998,-0.96653388,1.0000016371612503,0.0,0.0,0.0,-2.40262925,0.6962721499999999,9.46341725,-0.6465,-0.1175,0.0541,-0.7519,4.176067233511821,-14.27923451904686,98.1002771729469,30.4
76001399060775,10.063699,38759.0,10.0,-0.2466478,-0.07057191999999998,-0.96653388,1.0000016371612503,0.0,0.0,0.0,-2.42224255,0.6864655000000001,9.473223899999999,-0.6465,-0.1175,0.0541,-0.7519,4.176067233511821,-14.27923451904686,98.1002771729469,30.4
76001409073082,10.012307,38769.0,10.0,-0.2466478,-0.07057191999999998,-0.96653388,1.0000016371612503,0.0,0.0,0.0,-2.4124358999999997,0.6962721499999999,9.483030549999999,-0.6465,-0.1175,0.0541,-0.7519,4.176067233511821,-14.27923451904686,98.1002771729469,30.4
76001419081311,10.008229,38779.0,10.0,-0.2466478,-0.07057191999999998,-0.96653388,1.0000016371612503,0.0,0.0,0.0,-2.42224255,0.6962721499999999,9.483030549999999,-0.6465,-0.1175,0.0541,-0.7519,4.176067233511821,-14.27923451904686,98.1002771729469,30.4
76001429020753,9.939442,38789.0,10.0,-0.2466478,-0.07057191999999998,-0.96653388,1.0000016371612503,0.0,0.0,0.0,-2.42224255,0.6864655000000001,9.483030549999999,-0.6465,-0.1175,0.0541,-0.7519,4.176067233511821,-14.27923451904686,98.1002771729469,30.4
76001439063203,10.04245,38799.0,10.0,-0.2466478,-0.07057191999999998,-0.96653388,1.0000016371612503,0.0,0.0,0.0,-2.42224255,0.6962721499999999,9.483030549999999,-0.6465,-0.1175,0.0541,-0.7519,4.176067233511821,-14.27923451904686,98.1002771729469,30.4
76001449070925,10.007722,38809.0,10.0,-0.2466478,-0.07057191999999998,-0.96653388,1.0000016371612503,0.0,0.0,0.0,-2.4124358999999997,0.7060787999999999,9.483030549999999,-0.6465,-0.1175,0.0541,-0.7519,4.176067233511821,-14.27923451904686,98.1002771729469,30.4
76001459062163,9.991238,38819.0,10.0,-0.2466478,-0.07057191999999998,-0.96653388,1.0000016371612503,0.0,0.0,0.0,-2.4124358999999997,0.6962721499999999,9.46341725,-0.6465,-0.1175,0.0541,-0.7519,4.176067233511821,-14.27923451904686,98.1002771729469,30.4
76001469033772,9.971609,38829.0,10.0,-0.2466478,-0.07057191999999998,-0.96653388,1.0000016371612503,0.0,0.0,0.0,-2.42224255,0.6962721499999999,9.483030549999999,-0.6465,-0.1175,0.0541,-0.7519,4.176067233511821,-14.27923451904686,98.1002771729469,30.3
76001479026539,9.992767,38839.0,10.0,-0.2466478,-0.07057191999999998,-0.96653388,1.0000016371612503,0.0,0.0,0.0,-2.4320492,0.6962721499999999,9.483030549999999,-0.6465,-0.1175,0.0541,-0.7519,4.176067233511821,-14.27923451904686,98.1002771729469,30.3
76001489044789,10.01825,38849.0,10.0,-0.2466478,-0.07057191999999998,-0.96653388,1.0000016371612503,0.0,0.0,0.0,-2.4320492,0.7060787999999999,9.483030549999999,-0.6465,-0.1175,0.0541,-0.7519,4.176067233511821,-14.27923451904686,98.1002771729469,30.4
76001499037230,9.992441,38859.0,10.0,-0.2466478,-0.07057191999999998,-0.96653388,1.0000016371612503,0.0,0.0,0.0,-2.4124358999999997,0.6962721499999999,9.483030549999999,-0.6465,-0.1175,0.0541,-0.7519,4.176067233511821,-14.27923451904686,98.1002771729469,30.4
76001509106569,10.069339,38869.0,10.0,-0.2466478,-0.07057191999999998,-0.96653388,1.0000016371612503,0.0,0.0,0.0,-2.4320492,0.6962721499999999,9.483030549999999,-0.6465,-0.1175,0.0541,-0.7519,4.176067233511821,-14.27923451904686,98.1002771729469,30.4
76001519046524,9.939955,38879.0,10.0,-0.2466478,-0.07057191999999998,-0.96653388,1.0000016371612503,0.0,0.0,0.0,-2.42224255,0.6962721499999999,9.473223899999999,-0.6465,-0.1175,0.0541,-0.7519,4.176067233511821,-14.27923451904686,98.1002771729469,30.4
76001529010759,9.964235,38889.0,10.0,-0.2466478,-0.07057191999999998,-0.96653388,1.0000016371612503,0.0,0.0,0.0,-2.42224255,0.6962721499999999,9.483030549999999,-0.6465,-0.1175,0.0541,-0.7519,4.176067233511821,-14.27923451904686,98.1002771729469,30.4
76001539086114,10.075355,38899.0,10.0,-0.2466478,-0.07057191999999998,-0.96653388,1.0000016371612503,0.0,0.0,0.0,-2.4124358999999997,0.6962721499999999,9.473223899999999,-0.6465,-0.1175,0.0541,-0.7519,4.176067233511821,-14.27923451904686,98.1002771729469,30.4
76001549018357,9.932243,38909.0,10.0,-0.2466478,-0.07057191999999998,-0.96653388,1.0000016371612503,0.0,0.0,0.0,-2.4124358999999997,0.6962721499999999,9.473223899999999,-0.6465,-0.1175,0.0541,-0.7519,4.176067233511821,-14.27923451904686,98.1002771729469,30.4
76001559168465,10.150108,38919.0,10.0,-0.2466478,-0.07057191999999998,-0.96653388,1.0000016371612503,0.0,0.0,0.0,-2.40262925,0.6962721499999999,9.483030549999999,-0.6465,-0.1175,0.0541,-0.7519,4.176067233511821,-14.27923451904686,98.1002771729469,30.4
76001569172796,10.004331,38929.0,10.0,-0.2466478,-0.07057191999999998,-0.96653388,1.0000016371612503,0.0,0.0,0.0,-2.42224255,0.6864655000000001,9.483030549999999,-0.6465,-0.1175,0.0541,-0.7519,4.176067233511821,-14.27923451904686,98.1002771729469,30.3
76001579123691,9.950895,38939.0,10.0,-0.2466478,-0.07057191999999998,-0.96653388,1.0000016371612503,0.0,0.0,0.0,-2.4124358999999997,0.67665885,9.483030549999999,-0.6465,-0.1175,0.0541,-0.7519,4.176067233511821,-14.27923451904686,98.1002771729469,30.4
76001589174427,10.050736,38949.0,10.0,-0.2466478,-0.07057191999999998,-0.96653388,1.0000016371612503,0.0,0.0,0.0,-2.42224255,0.6864655000000001,9.483030549999999,-0.6465,-0.1175,0.0541,-0.7519,4.176067233511821,-14.27923451904686,98.1002771729469,30.4
76001599061056,9.886629,38959.0,10.0,-0.2466478,-0.07057191999999998,-0.96653388,1.0000016371612503,0.0,0.0,0.0,-2.42224255,0.6962721499999999,9.46341725,-0.6465,-0.1175,0.0541,-0.7519,4.176067233511821,-14.27923451904686,98.1002771729469,30.4
76001608991977,9.930921,38969.0,10.0,-0.2466478,-0.07057191999999998,-0.96653388,1.0000016371612503,0.0,0.0,0.0,-2.4320492,0.6864655000000001,9.473223899999999,-0.6465,-0.1175,0.0541,-0.7519,4.176067233511821,-14.27923451904686,98.1002771729469,30.4
76001619063414,10.071437,38979.0,10.0,-0.2466478,-0.07057191999999998,-0.96653388,1.0000016371612503,0.0,0.0,0.0,-2.40262925,0.6962721499999999,9.483030549999999,-0.6465,-0.1175,0.0541,-0.7519,4.176067233511821,-14.27923451904686,98.1002771729469,30.4
76001629014962,9.951548,38989.0,10.0,-0.2466478,-0.07057191999999998,-0.96653388,1.0000016371612503,0.0,0.0,0.0,-2.42224255,0.7060787999999999,9.492837199999999,-0.6465,-0.1175,0.0541,-0.7519,4.176067233511821,-14.27923451904686,98.1002771729469,30.4
76001639048013,10.033051,38999.0,10.0,-0.2466478,-0.07057191999999998,-0.96653388,1.0000016371612503,0.0,0.0,0.0,-2.42224255,0.6962721499999999,9.483030549999999,-0.6465,-0.1175,0.0541,-0.7519,4.176067233511821,-14.27923451904686,98.1002771729469,30.3
76001649066279,10.018266,39009.0,10.0,-0.2466478,-0.07057191999999998,-0.96653388,1.0000016371612503,0.0,0.0,0.0,-2.42224255,0.6962721499999999,9.483030549999999,-0.6465,-0.1175,0.0541,-0.7519,4.176067233511821,-14.27923451904686,98.1002771729469,30.3
76001659067001,10.000722,39019.0,10.0,-0.2466478,-0.07057191999999998,-0.96653388,1.0000016371612503,0.0,0.0,0.0,-2.4320492,0.6864655000000001,9.46341725,-0.6465,-0.1175,0.0541,-0.7519,4.176067233511821,-14.27923451904686,98.1002771729469,30.4
76001669062120,9.995119,39029.0,10.0,-0.2466478,-0.07057191999999998,-0.96653388,1.0000016371612503,0.0,0.0,0.0,-2.4124358999999997,0.6864655000000001,9.483030549999999,-0.6465,-0.1175,0.0541,-0.7519,4.176067233511821,-14.27923451904686,98.1002771729469,30.4
76001678984589,9.922469,39039.0,10.0,-0.2466478,-0.07057191999999998,-0.96653388,1.0000016371612503,0.0,0.0,0.0,-2.4124358999999997,0.6864655000000001,9.473223899999999,-0.6465,-0.1175,0.0541,-0.7519,4.176067233511821,-14.27923451904686,98.1002771729469,30.4
76001689069214,10.084625,39049.0,10.0,-0.2466478,-0.07057191999999998,-0.96653388,1.0000016371612503,0.0,0.0,0.0,-2.42224255,0.6962721499999999,9.473223899999999,-0.6465,-0.1175,0.0541,-0.7519,4.176067233511821,-14.27923451904686,98.1002771729469,30.4
76001699035068,9.965854,39059.0,10.0,-0.2466478,-0.07057191999999998,-0.96653388,1.0000016371612503,0.0,0.0,0.0,-2.42224255,0.6864655000000001,9.46341725,-0.6465,-0.1175,0.0541,-0.7519,4.176067233511821,-14.27923451904686,98.1002771729469,30.4
76001709031061,9.995993,39069.0,10.0,-0.2466478,-0.07057191999999998,-0.96653388,1.0000016371612503,0.0,0.0,0.0,-2.42224255,0.6864655000000001,9.492837199999999,-0.6465,-0.1175,0.0541,-0.7519,4.176067233511821,-14.27923451904686,98.1002771729469,30.4
76001718993830,9.962769,39079.0,10.0,-0.2466478,-0.07057191999999998,-0.96653388,1.0000016371612503,0.0,0.0,0.0,-2.40262925,0.6962721499999999,9.483030549999999,-0.6465,-0.1175,0.0541,-0.7519,4.176067233511821,-14.27923451904686,98.1002771729469,30.4
76001729022000,10.02817,39089.0,10.0,-0.2466478,-0.07057191999999998,-0.96653388,1.0000016371612503,0.0,0.0,0.0,-2.42224255,0.6864655000000001,9.46341725,-0.6465,-0.1175,0.0541,-0.7519,4.176067233511821,-14.27923451904686,98.1002771729469,30.4
76001739063944,10.041944,39099.0,10.0,-0.2466478,-0.07057191999999998,-0.96653388,1.0000016371612503,0.0,0.0,0.0,-2.4124358999999997,0.6962721499999999,9.473223899999999,-0.6465,-0.1175,0.0541,-0.7519,4.176067233511821,-14.27923451904686,98.1002771729469,30.3
76001749038927,9.974983,39109.0,10.0,-0.2466478,-0.07057191999999998,-0.96653388,1.0000016371612503,0.0,0.0,0.0,-2.42224255,0.6864655000000001,9.473223899999999,-0.6465,-0.1175,0.0541,-0.7519,4.176067233511821,-14.27923451904686,98.1002771729469,30.4
76001759044669,10.005742,39119.0,10.0,-0.2466478,-0.07057191999999998,-0.96653388,1.0000016371612503,0.0,0.0,0.0,-2.4320492,0.6864655000000001,9.492837199999999,-0.6465,-0.1175,0.0541,-0.7519,4.176067233511821,-14.27923451904686,98.1002771729469,30.3
76001769033967,9.989298,39129.0,10.0,-0.2466478,-0.07057191999999998,-0.96653388,1.0000016371612503,0.0,0.0,0.0,-2.4124358999999997,0.6962721499999999,9.483030549999999,-0.6465,-0.1175,0.0541,-0.7519,4.176067233511821,-14.27923451904686,98.1002771729469,30.3
76001779039732,10.005765,39139.0,10.0,-0.2466478,-0.07057191999999998,-0.96653388,1.0000016371612503,0.0,0.0,0.0,-2.4124358999999997,0.6962721499999999,9.473223899999999,-0.6465,-0.1175,0.0541,-0.7519,4.176067233511821,-14.27923451904686,98.1002771729469,30.3
76001789011703,9.971971,39149.0,10.0,-0.2466478,-0.07057191999999998,-0.96653388,1.0000016371612503,0.0,0.0,0.0,-2.4320492,0.6864655000000001,9.473223899999999,-0.6465,-0.1175,0.0541,-0.7519,4.176067233511821,-14.27923451904686,98.1002771729469,30.4
76001799070825,10.059122,39159.0,10.0,-0.2466478,-0.07057191999999998,-0.96653388,1.0000016371612503,0.0,0.0,0.0,-2.4320492,0.6962721499999999,9.473223899999999,-0.6465,-0.1175,0.0541,-0.7519,4.176067233511821,-14.27923451904686,98.1002771729469,30.3
76001809065763,9.994938,39169.0,10.0,-0.2466478,-0.07057191999999998,-0.96653388,1.0000016371612503,0.0,0.0,0.0,-2.4124358999999997,0.6962721499999999,9.483030549999999,-0.6465,-0.1175,0.0541,-0.7519,4.176067233511821,-14.27923451904686,98.1002771729469,30.3
76001819045458,9.979695,39179.0,10.0,-0.2466478,-0.07057191999999998,-0.96653388,1.0000016371612503,0.0,0.0,0.0,-2.4124358999999997,0.6864655000000001,9.473223899999999,-0.6465,-0.1175,0.0541,-0.7519,4.176067233511821,-14.27923451904686,98.1002771729469,30.4
76001829039192,9.993734,39189.0,10.0,-0.2466478,-0.07057191999999998,-0.96653388,1.0000016371612503,0.0,0.0,0.0,-2.4320492,0.6962721499999999,9.492837199999999,-0.6465,-0.1175,0.0541,-0.7519,4.176067233511821,-14.27923451904686,98.1002771729469,30.4
76001839038439,9.999247,39199.0,10.0,-0.2466478,-0.07057191999999998,-0.96653388,1.0000016371612503,0.0,0.0,0.0,-2.4124358999999997,0.6962721499999999,9.473223899999999,-0.6465,-0.1175,0.0541,-0.7519,4.176067233511821,-14.27923451904686,98.1002771729469,30.4
76001849048389,10.00995,39209.0,10.0,-0.2466478,-0.07057191999999998,-0.96653388,1.0000016371612503,0.0,0.0,0.0,-2.42224255,0.6962721499999999,9.483030549999999,-0.6465,-0.1175,0.0541,-0.7519,4.176067233511821,-14.27923451904686,98.1002771729469,30.4
76001859014509,9.96612,39219.0,10.0,-0.2466478,-0.07057191999999998,-0.96653388,1.0000016371612503,0.0,0.0,0.0,-2.4124358999999997,0.6962721499999999,9.483030549999999,-0.6465,-0.1175,0.0541,-0.7519,4.176067233511821,-14.27923451904686,98.1002771729469,30.4
76001869039368,10.024859,39229.0,10.0,-0.2466478,-0.07057191999999998,-0.96653388,1.0000016371612503,0.0,0.0,0.0,-2.42224255,0.6962721499999999,9.473223899999999,-0.6465,-0.1175,0.0541,-0.7519,4.176067233511821,-14.27923451904686,98.1002771729469,30.4
76001878958316,9.918948,39239.0,10.0,-0.2466478,-0.07057191999999998,-0.96653388,1.0000016371612503,0.0,0.0,0.0,-2.4124358999999997,0.6962721499999999,9.473223899999999,-0.6465,-0.1175,0.0541,-0.7519,4.176067233511821,-14.27923451904686,98.1002771729469,30.4
76001889016035,10.057719,39249.0,10.0,-0.2466478,-0.07057191999999998,-0.96653388,1.0000016371612503,0.0,0.0,0.0,-2.4124358999999997,0.67665885,9.473223899999999,-0.6465,-0.1175,0.0541,-0.7519,4.176067233511821,-14.27923451904686,98.1002771729469,30.3
76001899092158,10.076123,39259.0,10.0,-0.2466478,-0.07057191999999998,-0.96653388,1.0000016371612503,0.0,0.0,0.0,-2.42224255,0.6962721499999999,9.473223899999999,-0.6465,-0.1175,0.0541,-0.7519,4.176067233511821,-14.27923451904686,98.1002771729469,30.3
76001909085285,9.993127,39269.0,10.0,-0.2466478,-0.07057191999999998,-0.96653388,1.0000016371612503,0.0,0.0,0.0,-2.4320492,0.6962721499999999,9.483030549999999,-0.6465,-0.1175,0.0541,-0.7519,4.176067233511821,-14.27923451904686,98.1002771729469,30.4
76001919038126,9.952841,39279.0,10.0,-0.2466478,-0.07057191999999998,-0.96653388,1.0000016371612503,0.0,0.0,0.0,-2.42224255,0.6962721499999999,9.473223899999999,-0.6465,-0.1175,0.0541,-0.7519,4.176067233511821,-14.27923451904686,98.1002771729469,30.4
76001929044203,10.006077,39289.0,10.0,-0.2466478,-0.07057191999999998,-0.96653388,1.0000016371612503,0.0,0.0,0.0,-2.42224255,0.6962721499999999,9.473223899999999,-0.6465,-0.1175,0.0541,-0.7519,4.176067233511821,-14.27923451904686,98.1002771729469,30.3
76001938998051,9.953848,39299.0,10.0,-0.2466478,-0.07057191999999998,-0.96653388,1.0000016371612503,0.0,0.0,0.0,-2.42224255,0.6864655000000001,9.473223899999999,-0.6465,-0.1175,0.0541,-0.7519,4.176067233511821,-14.27923451904686,98.1002771729469,30.3
76001949047553,10.049502,39309.0,10.0,-0.2466478,-0.07057191999999998,-0.96653388,1.0000016371612503,0.0,0.0,0.0,-2.4124358999999997,0.6962721499999999,9.492837199999999,-0.6465,-0.1175,0.0541,-0.7519,4.176067233511821,-14.27923451904686,98.1002771729469,30.3
76001959045210,9.997657,39319.0,10.0,-0.2466478,-0.07057191999999998,-0.96653388,1.0000016371612503,0.0,0.0,0.0,-2.4124358999999997,0.6962721499999999,9.473223899999999,-0.6465,-0.1175,0.0541,-0.7519,4.176067233511821,-14.27923451904686,98.1002771729469,30.3
76001968970925,9.925715,39329.0,10.0,-0.2466478,-0.07057191999999998,-0.96653388,1.0000016371612503,0.0,0.0,0.0,-2.42224255,0.6962721499999999,9.473223899999999,-0.6465,-0.1175,0.0541,-0.7519,4.176067233511821,-14.27923451904686,98.1002771729469,30.3
76001978978711,10.007786,39339.0,10.0,-0.2466478,-0.07057191999999998,-0.96653388,1.0000016371612503,0.0,0.0,0.0,-2.42224255,0.6864655000000001,9.473223899999999,-0.6465,-0.1175,0.0541,-0.7519,4.176067233511821,-14.27923451904686,98.1002771729469,30.4
76001989048958,10.070247,39349.0,10.0,-0.2466478,-0.07057191999999998,-0.96653388,1.0000016371612503,0.0,0.0,0.0,-2.4124358999999997,0.6962721499999999,9.483030549999999,-0.6465,-0.1175,0.0541,-0.7519,4.176067233511821,-14.27923451904686,98.1002771729469,30.3
76001998998526,9.949568,39359.0,10.0,-0.2466478,-0.07057191999999998,-0.96653388,1.0000016371612503,0.0,0.0,0.0,-2.4320492,0.7060787999999999,9.483030549999999,-0.6465,-0.1175,0.0541,-0.7519,4.176067233511821,-14.27923451904686,98.1002771729469,30.3
76002009046228,10.047702,39369.0,10.0,-0.2466478,-0.07057191999999998,-0.96653388,1.0000016371612503,0.0,0.0,0.0,-2.4124358999999997,0.6962721499999999,9.473223899999999,-0.6465,-0.1175,0.0541,-0.7519,4.176067233511821,-14.27923451904686,98.1002771729469,30.3
76002019067998,10.02177,39379.0,10.0,-0.2466478,-0.07057191999999998,-0.96653388,1.0000016371612503,0.0,0.0,0.0,-2.42224255,0.6962721499999999,9.483030549999999,-0.6465,-0.1175,0.0541,-0.7519,4.176067233511821,-14.27923451904686,98.1002771729469,30.4
76002029038836,9.970838,39389.0,10.0,-0.2466478,-0.07057191999999998,-0.96653388,1.0000016371612503,0.0,0.0,0.0,-2.42224255,0.6962721499999999,9.473223899999999,-0.6465,-0.1175,0.0541,-0.7519,4.176067233511821,-14.27923451904686,98.1002771729469,30.4
76002039070632,10.031796,39399.0,10.0,-0.2466478,-0.07057191999999998,-0.96653388,1.0000016371612503,0.0,0.0,0.0,-2.42224255,0.6962721499999999,9.483030549999999,-0.6465,-0.1175,0.0541,-0.7519,4.176067233511821,-14.27923451904686,98.1002771729469,30.3
76002049037227,9.966595,39409.0,10.0,-0.2466478,-0.07057191999999998,-0.96653388,1.0000016371612503,0.0,0.0,0.0,-2.42224255,0.7060787999999999,9.483030549999999,-0.6465,-0.1175,0.0541,-0.7519,4.176067233511821,-14.27923451904686,98.1002771729469,30.4
76002059009021,9.971794,39419.0,10.0,-0.2466478,-0.07057191999999998,-0.96653388,1.0000016371612503,0.0,0.0,0.0,-2.42224255,0.6864655000000001,9.492837199999999,-0.6465,-0.1175,0.0541,-0.7519,4.176067233511821,-14.27923451904686,98.1002771729469,30.4
76002068975747,9.966726,39429.0,10.0,-0.2466478,-0.07057191999999998,-0.96653388,1.0000016371612503,0.0,0.0,0.0,-2.42224255,0.6864655000000001,9.46341725,-0.6465,-0.1175,0.0541,-0.7519,4.176067233511821,-14.27923451904686,98.1002771729469,30.4
76002079011397,10.03565,39439.0,10.0,-0.2466478,-0.07057191999999998,-0.96653388,1.0000016371612503,0.0,0.0,0.0,-2.42224255,0.6962721499999999,9.483030549999999,-0.6465,-0.1175,0.0541,-0.7519,4.176067233511821,-14.27923451904686,98.1002771729469,30.4
76002089013165,10.001768,39449.0,10.0,-0.2466478,-0.07057191999999998,-0.96653388,1.0000016371612503,0.0,0.0,0.0,-2.4124358999999997,0.6962721499999999,9.483030549999999,-0.6465,-0.1175,0.0541,-0.7519,4.176067233511821,-14.27923451904686,98.1002771729469,30.4
76002099013136,9.999971,39459.0,10.0,-0.2466478,-0.07057191999999998,-0.96653388,1.0000016371612503,0.0,0.0,0.0,-2.4320492,0.6962721499999999,9.483030549999999,-0.6465,-0.1175,0.0541,-0.7519,4.176067233511821,-14.27923451904686,98.1002771729469,30.4
76002109036713,10.023577,39469.0,10.0,-0.2466478,-0.07057191999999998,-0.96653388,1.0000016371612503,0.0,0.0,0.0,-2.42224255,0.6864655000000001,9.483030549999999,-0.6465,-0.1175,0.0541,-0.7519,4.176067233511821,-14.27923451904686,98.1002771729469,30.4
76002119031857,9.995144,39479.0,10.0,-0.2466478,-0.07057191999999998,-0.96653388,1.0000016371612503,0.0,0.0,0.0,-2.42224255,0.6962721499999999,9.483030549999999,-0.6465,-0.1175,0.0541,-0.7519,4.176067233511821,-14.27923451904686,98.1002771729469,30.4
76002129045902,10.014045,39489.0,10.0,-0.2466478,-0.07057191999999998,-0.96653388,1.0000016371612503,0.0,0.0,0.0,-2.42224255,0.6864655000000001,9.483030549999999,-0.6465,-0.1175,0.0541,-0.7519,4.176067233511821,-14.27923451904686,98.1002771729469,30.4
76002139066419,10.020517,39499.0,10.0,-0.2466478,-0.07057191999999998,-0.96653388,1.0000016371612503,0.0,0.0,0.0,-2.4320492,0.6962721499999999,9.483030549999999,-0.6465,-0.1175,0.0541,-0.7519,4.176067233511821,-14.27923451904686,98.1002771729469,30.4
76002149061936,9.995517,39509.0,10.0,-0.2466478,-0.07057191999999998,-0.96653388,1.0000016371612503,0.0,0.0,0.0,-2.4320492,0.7060787999999999,9.483030549999999,-0.6465,-0.1175,0.0541,-0.7519,4.176067233511821,-14.27923451904686,98.1002771729469,30.3
76002158984662,9.922726,39519.0,10.0,-0.2466478,-0.07057191999999998,-0.96653388,1.0000016371612503,0.0,0.0,0.0,-2.4320492,0.6962721499999999,9.483030549999999,-0.6465,-0.1175,0.0541,-0.7519,4.176067233511821,-14.27923451904686,98.1002771729469,30.4
76002169036883,10.052221,39529.0,10.0,-0.2466478,-0.07057191999999998,-0.96653388,1.0000016371612503,0.0,0.0,0.0,-2.42224255,0.6962721499999999,9.483030549999999,-0.6465,-0.1175,0.0541,-0.7519,4.176067233511821,-14.27923451904686,98.1002771729469,30.4
76002179017307,9.980424,39539.0,10.0,-0.2466478,-0.07057191999999998,-0.96653388,1.0000016371612503,0.0,0.0,0.0,-2.4124358999999997,0.6864655000000001,9.483030549999999,-0.6465,-0.1175,0.0541,-0.7519,4.176067233511821,-14.27923451904686,98.1002771729469,30.4
76002188995743,9.978436,39549.0,10.0,-0.2466478,-0.07057191999999998,-0.96653388,1.0000016371612503,0.0,0.0,0.0,-2.42224255,0.7060787999999999,9.473223899999999,-0.6465,-0.1175,0.0541,-0.7519,4.176067233511821,-14.27923451904686,98.1002771729469,30.3
76002199007425,10.011682,39559.0,10.0,-0.2466478,-0.07057191999999998,-0.96653388,1.0000016371612503,0.0,0.0,0.0,-2.4124358999999997,0.7060787999999999,9.473223899999999,-0.6465,-0.1175,0.0541,-0.7519,4.176067233511821,-14.27923451904686,98.1002771729469,30.4
76002209048884,10.041459,39569.0,10.0,-0.2466478,-0.07057191999999998,-0.96653388,1.0000016371612503,0.0,0.0,0.0,-2.4320492,0.6962721499999999,9.483030549999999,-0.6465,-0.1175,0.0541,-0.7519,4.176067233511821,-14.27923451904686,98.1002771729469,30.4
76002219006788,9.957904,39579.0,10.0,-0.2466478,-0.07057191999999998,-0.96653388,1.0000016371612503,0.0,0.0,0.0,-2.42224255,0.6864655000000001,9.473223899999999,-0.6465,-0.1175,0.0541,-0.7519,4.176067233511821,-14.27923451904686,98.1002771729469,30.4
76002229037553,10.030765,39589.0,10.0,-0.2466478,-0.07057191999999998,-0.96653388,1.0000016371612503,0.0,0.0,0.0,-2.42224255,0.6962721499999999,9.473223899999999,-0.6465,-0.1175,0.0541,-0.7519,4.176067233511821,-14.27923451904686,98.1002771729469,30.4
76002239034863,9.99731,39599.0,10.0,-0.2466478,-0.07057191999999998,-0.96653388,1.0000016371612503,0.0,0.0,0.0,-2.42224255,0.6962721499999999,9.492837199999999,-0.6465,-0.1175,0.0541,-0.7519,4.176067233511821,-14.27923451904686,98.1002771729469,30.4
76002249057894,10.023031,39609.0,10.0,-0.2466478,-0.07057191999999998,-0.96653388,1.0000016371612503,0.0,0.0,0.0,-2.42224255,0.6864655000000001,9.483030549999999,-0.6465,-0.1175,0.0541,-0.7519,4.176067233511821,-14.27923451904686,98.1002771729469,30.4
76002259062499,10.004605,39619.0,10.0,-0.2466478,-0.07057191999999998,-0.96653388,1.0000016371612503,0.0,0.0,0.0,-2.44185585,0.6962721499999999,9.473223899999999,-0.6465,-0.1175,0.0541,-0.7519,4.176067233511821,-14.27923451904686,98.1002771729469,30.4
76002269044859,9.98236,39629.0,10.0,-0.2466478,-0.07057191999999998,-0.96653388,1.0000016371612503,0.0,0.0,0.0,-2.42224255,0.6962721499999999,9.483030549999999,-0.6465,-0.1175,0.0541,-0.7519,4.176067233511821,-14.27923451904686,98.1002771729469,30.4
76002278991393,9.946534,39639.0,10.0,-0.2466478,-0.07057191999999998,-0.96653388,1.0000016371612503,0.0,0.0,0.0,-2.42224255,0.6864655000000001,9.473223899999999,-0.6465,-0.1175,0.0541,-0.7519,4.176067233511821,-14.27923451904686,98.1002771729469,30.4
76002289054851,10.063458,39649.0,10.0,-0.2466478,-0.07057191999999998,-0.96653388,1.0000016371612503,0.0,0.0,0.0,-2.4124358999999997,0.6962721499999999,9.46341725,-0.6465,-0.1175,0.0541,-0.7519,4.176067233511821,-14.27923451904686,98.1002771729469,30.4
76002299066017,10.011166,39659.0,10.0,-0.2466478,-0.07057191999999998,-0.96653388,1.0000016371612503,0.0,0.0,0.0,-2.4320492,0.6864655000000001,9.473223899999999,-0.6465,-0.1175,0.0541,-0.7519,4.176067233511821,-14.27923451904686,98.1002771729469,30.4
76002309049330,9.983313,39669.0,10.0,-0.2466478,-0.07057191999999998,-0.96653388,1.0000016371612503,0.0,0.0,0.0,-2.4124358999999997,0.6962721499999999,9.473223899999999,-0.6465,-0.1175,0.0541,-0.7519,4.176067233511821,-14.27923451904686,98.1002771729469,30.4
76002319020034,9.970704,39679.0,10.0,-0.2466478,-0.07057191999999998,-0.96653388,1.0000016371612503,0.0,0.0,0.0,-2.4124358999999997,0.6962721499999999,9.483030549999999,-0.6465,-0.1175,0.0541,-0.7519,4.176067233511821,-14.27923451904686,98.1002771729469,30.4
76002328983918,9.963884,39689.0,10.0,-0.2466478,-0.07057191999999998,-0.96653388,1.0000016371612503,0.0,0.0,0.0,-2.4124358999999997,0.6864655000000001,9.483030549999999,-0.6465,-0.1175,0.0541,-0.7519,4.176067233511821,-14.27923451904686,98.1002771729469,30.4
76002338953818,9.9699,39699.0,10.0,-0.2466478,-0.07057191999999998,-0.96653388,1.0000016371612503,0.0,0.0,0.0,-2.4124358999999997,0.6962721499999999,9.483030549999999,-0.6465,-0.1175,0.0541,-0.7519,4.176067233511821,-14.27923451904686,98.1002771729469,30.4
76002348979328,10.02551,39709.0,10.0,-0.2466478,-0.07057191999999998,-0.96653388,1.0000016371612503,0.0,0.0,0.0,-2.4320492,0.7060787999999999,9.483030549999999,-0.6465,-0.1175,0.0541,-0.7519,4.176067233511821,-14.27923451904686,98.1002771729469,30.4
76002359026565,10.047237,39719.0,10.0,-0.2466478,-0.07057191999999998,-0.96653388,1.0000016371612503,0.0,0.0,0.0,-2.4124358999999997,0.6962721499999999,9.483030549999999,-0.6465,-0.1175,0.0541,-0.7519,4.176067233511821,-14.27923451904686,98.1002771729469,30.4
