host_monotonic_ns,host_dt_ms,sensor_ms,sensor_dt_ms,gravity_x,gravity_y,gravity_z,gravity_norm,gyro_x_dps,gyro_y_dps,gyro_z_dps,accel_x_mps2,accel_y_mps2,accel_z_mps2,qw,qx,qy,qz,roll_deg,pitch_deg,yaw_deg,temp_c
76254962456370,,52321.0,,-0.14041466,-0.07312072,-0.98738918,1.0000001546086412,0.0,0.0,0.0,-1.3827376499999997,0.7256921,9.67916355,-0.6586,-0.0771,0.019,-0.7483,4.235285636782925,-8.071841536903616,96.99790875462816,31.2
76254972461520,10.00515,52331.0,10.0,-0.14041466,-0.07312072,-0.98738918,1.0000001546086412,0.0,0.0,0.0,-1.3729310000000001,0.7256921,9.67916355,-0.6586,-0.0771,0.019,-0.7483,4.235285636782925,-8.071841536903616,96.99790875462816,31.2
76254982287886,9.826366,52341.0,10.0,-0.14041466,-0.07312072,-0.98738918,1.0000001546086412,0.0,0.0,0.0,-1.3729310000000001,0.7158854499999999,9.67916355,-0.6586,-0.0771,0.019,-0.7483,4.235285636782925,-8.071841536903616,96.99790875462816,31.2
76254992395674,10.107788,52351.0,10.0,-0.14041466,-0.07312072,-0.98738918,1.0000001546086412,0.0,0.0,0.0,-1.3827376499999997,0.7060787999999999,9.6889702,-0.6586,-0.0771,0.019,-0.7483,4.235285636782925,-8.071841536903616,96.99790875462816,31.2
76255002444162,10.048488,52361.0,10.0,-0.14041466,-0.07312072,-0.98738918,1.0000001546086412,0.0,0.0,0.0,-1.3729310000000001,0.7158854499999999,9.669356899999999,-0.6586,-0.0771,0.019,-0.7483,4.235285636782925,-8.071841536903616,96.99790875462816,31.2
76255012414914,9.970752,52371.0,10.0,-0.14041466,-0.07312072,-0.98738918,1.0000001546086412,0.0,0.0,0.0,-1.3827376499999997,0.7158854499999999,9.67916355,-0.6586,-0.0771,0.019,-0.7483,4.235285636782925,-8.071841536903616,96.99790875462816,31.2
76255022353580,9.938666,52381.0,10.0,-0.14041466,-0.07312072,-0.98738918,1.0000001546086412,0.0,0.0,0.0,-1.3729310000000001,0.7158854499999999,9.6889702,-0.6586,-0.0771,0.019,-0.7483,4.235285636782925,-8.071841536903616,96.99790875462816,31.2
76255032456425,10.102845,52391.0,10.0,-0.14041466,-0.07312072,-0.98738918,1.0000001546086412,0.0,0.0,0.0,-1.3827376499999997,0.7158854499999999,9.669356899999999,-0.6586,-0.0771,0.019,-0.7483,4.235285636782925,-8.071841536903616,96.99790875462816,31.2
76255042466172,10.009747,52401.0,10.0,-0.14041466,-0.07312072,-0.98738918,1.0000001546086412,0.0,0.0,0.0,-1.3729310000000001,0.7158854499999999,9.6889702,-0.6586,-0.0771,0.019,-0.7483,4.235285636782925,-8.071841536903616,96.99790875462816,31.2
76255052460443,9.994271,52411.0,10.0,-0.14041466,-0.07312072,-0.98738918,1.0000001546086412,0.0,0.0,0.0,-1.3827376499999997,0.7158854499999999,9.67916355,-0.6586,-0.0771,0.019,-0.7483,4.235285636782925,-8.071841536903616,96.99790875462816,31.2
76255062350642,9.890199,52421.0,10.0,-0.14041466,-0.07312072,-0.98738918,1.0000001546086412,0.0,0.0,0.0,-1.3827376499999997,0.7158854499999999,9.669356899999999,-0.6586,-0.0771,0.019,-0.7483,4.235285636782925,-8.071841536903616,96.99790875462816,31.2
76255072595309,10.244667,52431.0,10.0,-0.14041466,-0.07312072,-0.98738918,1.0000001546086412,0.0,0.0,0.0,-1.3729310000000001,0.7060787999999999,9.67916355,-0.6586,-0.0771,0.019,-0.7483,4.235285636782925,-8.071841536903616,96.99790875462816,31.2
76255082359307,9.763998,52441.0,10.0,-0.14041466,-0.07312072,-0.98738918,1.0000001546086412,0.0,0.0,0.0,-1.3827376499999997,0.7158854499999999,9.6889702,-0.6586,-0.0771,0.019,-0.7483,4.235285636782925,-8.071841536903616,96.99790875462816,31.2
76255092429527,10.07022,52451.0,10.0,-0.14041466,-0.07312072,-0.98738918,1.0000001546086412,0.0,0.0,0.0,-1.3729310000000001,0.7158854499999999,9.6889702,-0.6586,-0.0771,0.019,-0.7483,4.235285636782925,-8.071841536903616,96.99790875462816,31.2
76255102470713,10.041186,52461.0,10.0,-0.14041466,-0.07312072,-0.98738918,1.0000001546086412,0.0,0.0,0.0,-1.3827376499999997,0.7158854499999999,9.67916355,-0.6586,-0.0771,0.019,-0.7483,4.235285636782925,-8.071841536903616,96.99790875462816,31.2
76255112461150,9.990437,52471.0,10.0,-0.14041466,-0.07312072,-0.98738918,1.0000001546086412,0.0,0.0,0.0,-1.3729310000000001,0.7158854499999999,9.67916355,-0.6586,-0.0771,0.019,-0.7483,4.235285636782925,-8.071841536903616,96.99790875462816,31.2
76255122311779,9.850629,52481.0,10.0,-0.14041466,-0.07312072,-0.98738918,1.0000001546086412,0.0,0.0,0.0,-1.3729310000000001,0.7060787999999999,9.67916355,-0.6586,-0.0771,0.019,-0.7483,4.235285636782925,-8.071841536903616,96.99790875462816,31.2
76255132410762,10.098983,52491.0,10.0,-0.14041466,-0.07312072,-0.98738918,1.0000001546086412,0.0,0.0,0.0,-1.36312435,0.7158854499999999,9.669356899999999,-0.6586,-0.0771,0.019,-0.7483,4.235285636782925,-8.071841536903616,96.99790875462816,31.2
76255142458161,10.047399,52501.0,10.0,-0.14041466,-0.07312072,-0.98738918,1.0000001546086412,0.0,0.0,0.0,-1.3729310000000001,0.7158854499999999,9.6889702,-0.6586,-0.0771,0.019,-0.7483,4.235285636782925,-8.071841536903616,96.99790875462816,31.2
76255152452076,9.993915,52511.0,10.0,-0.14041466,-0.07312072,-0.98738918,1.0000001546086412,0.0,0.0,0.0,-1.3827376499999997,0.7158854499999999,9.669356899999999,-0.6586,-0.0771,0.019,-0.7483,4.235285636782925,-8.071841536903616,96.99790875462816,31.2
76255162401908,9.949832,52521.0,10.0,-0.14041466,-0.07312072,-0.98738918,1.0000001546086412,0.0,0.0,0.0,-1.3827376499999997,0.7158854499999999,9.67916355,-0.6586,-0.0771,0.019,-0.7483,4.235285636782925,-8.071841536903616,96.99790875462816,31.2
76255172400297,9.998389,52531.0,10.0,-0.14041466,-0.07312072,-0.98738918,1.0000001546086412,0.0,0.0,0.0,-1.3729310000000001,0.7158854499999999,9.6889702,-0.6586,-0.0771,0.019,-0.7483,4.235285636782925,-8.071841536903616,96.99790875462816,31.2
76255182347500,9.947203,52541.0,10.0,-0.14041466,-0.07312072,-0.98738918,1.0000001546086412,0.0,0.0,0.0,-1.3827376499999997,0.7256921,9.69877685,-0.6586,-0.0771,0.019,-0.7483,4.235285636782925,-8.071841536903616,96.99790875462816,31.2
76255192457376,10.109876,52551.0,10.0,-0.14041466,-0.07312072,-0.98738918,1.0000001546086412,0.0,0.0,0.0,-1.36312435,0.7158854499999999,9.67916355,-0.6586,-0.0771,0.019,-0.7483,4.235285636782925,-8.071841536903616,96.99790875462816,31.2
76255202461271,10.003895,52561.0,10.0,-0.14041466,-0.07312072,-0.98738918,1.0000001546086412,0.0,0.0,0.0,-1.3729310000000001,0.7158854499999999,9.67916355,-0.6586,-0.0771,0.019,-0.7483,4.235285636782925,-8.071841536903616,96.99790875462816,31.2
76255212545897,10.084626,52571.0,10.0,-0.14041466,-0.07312072,-0.98738918,1.0000001546086412,0.0,0.0,0.0,-1.3827376499999997,0.7256921,9.67916355,-0.6586,-0.0771,0.019,-0.7483,4.235285636782925,-8.071841536903616,96.99790875462816,31.2
76255222477273,9.931376,52581.0,10.0,-0.14041466,-0.07312072,-0.98738918,1.0000001546086412,0.0,0.0,0.0,-1.3827376499999997,0.7256921,9.67916355,-0.6586,-0.0771,0.019,-0.7483,4.235285636782925,-8.071841536903616,96.99790875462816,31.2
76255232331174,9.853901,52591.0,10.0,-0.14041466,-0.07312072,-0.98738918,1.0000001546086412,0.0,0.0,0.0,-1.3729310000000001,0.7060787999999999,9.6889702,-0.6586,-0.0771,0.019,-0.7483,4.235285636782925,-8.071841536903616,96.99790875462816,31.2
76255242463715,10.132541,52601.0,10.0,-0.14041466,-0.07312072,-0.98738918,1.0000001546086412,0.0,0.0,0.0,-1.3729310000000001,0.7158854499999999,9.67916355,-0.6586,-0.0771,0.019,-0.7483,4.235285636782925,-8.071841536903616,96.99790875462816,31.2
76255252556126,10.092411,52611.0,10.0,-0.14041466,-0.07312072,-0.98738918,1.0000001546086412,0.0,0.0,0.0,-1.3729310000000001,0.7158854499999999,9.6889702,-0.6586,-0.0771,0.019,-0.7483,4.235285636782925,-8.071841536903616,96.99790875462816,31.2
76255262380746,9.82462,52621.0,10.0,-0.14041466,-0.07312072,-0.98738918,1.0000001546086412,0.0,0.0,0.0,-1.3925442999999997,0.7158854499999999,9.67916355,-0.6586,-0.0771,0.019,-0.7483,4.235285636782925,-8.071841536903616,96.99790875462816,31.2
76255282318015,19.937269,52641.0,20.0,-0.14041466,-0.07312072,-0.98738918,1.0000001546086412,0.0,0.0,0.0,-1.3827376499999997,0.7060787999999999,9.669356899999999,-0.6586,-0.0771,0.019,-0.7483,4.235285636782925,-8.071841536903616,96.99790875462816,31.2
76255292290755,9.97274,52651.0,10.0,-0.14041466,-0.07312072,-0.98738918,1.0000001546086412,0.0,0.0,0.0,-1.3729310000000001,0.7158854499999999,9.67916355,-0.6586,-0.0771,0.019,-0.7483,4.235285636782925,-8.071841536903616,96.99790875462816,31.2
76255302300121,10.009366,52661.0,10.0,-0.14041466,-0.07312072,-0.98738918,1.0000001546086412,0.0,0.0,0.0,-1.3729310000000001,0.7158854499999999,9.67916355,-0.6586,-0.0771,0.019,-0.7483,4.235285636782925,-8.071841536903616,96.99790875462816,31.2
76255322579080,20.278959,52681.0,20.0,-0.14041466,-0.07312072,-0.98738918,1.0000001546086412,0.0,0.0,0.0,-1.3729310000000001,0.7060787999999999,9.6889702,-0.6586,-0.0771,0.019,-0.7483,4.235285636782925,-8.071841536903616,96.99790875462816,31.2
76255332541510,9.96243,52691.0,10.0,-0.14041466,-0.07312072,-0.98738918,1.0000001546086412,0.0,0.0,0.0,-1.3729310000000001,0.7256921,9.6889702,-0.6586,-0.0771,0.019,-0.7483,4.235285636782925,-8.071841536903616,96.99790875462816,31.2
76255342448069,9.906559,52701.0,10.0,-0.14041466,-0.07312072,-0.98738918,1.0000001546086412,0.0,0.0,0.0,-1.3827376499999997,0.7158854499999999,9.67916355,-0.6586,-0.0771,0.019,-0.7483,4.235285636782925,-8.071841536903616,96.99790875462816,31.2
76255352529891,10.081822,52711.0,10.0,-0.14041466,-0.07312072,-0.98738918,1.0000001546086412,0.0,0.0,0.0,-1.3729310000000001,0.7256921,9.6889702,-0.6586,-0.0771,0.019,-0.7483,4.235285636782925,-8.071841536903616,96.99790875462816,31.2
76255412533916,60.004025,52771.0,60.0,-0.14041466,-0.07312072,-0.98738918,1.0000001546086412,0.0,0.0,0.0,-1.36312435,0.73549875,9.67916355,-0.6586,-0.0771,0.019,-0.7483,4.235285636782925,-8.071841536903616,96.99790875462816,31.2
76255462440751,49.906835,52821.0,50.0,-0.14041466,-0.07312072,-0.98738918,1.0000001546086412,0.0,0.0,0.0,-1.36312435,0.7158854499999999,9.67916355,-0.6586,-0.0771,0.019,-0.7483,4.235285636782925,-8.071841536903616,96.99790875462816,31.2
76255472409912,9.969161,52831.0,10.0,-0.14041466,-0.07312072,-0.98738918,1.0000001546086412,0.0,0.0,0.0,-1.3729310000000001,0.7158854499999999,9.67916355,-0.6586,-0.0771,0.019,-0.7483,4.235285636782925,-8.071841536903616,96.99790875462816,31.2
76255482353608,9.943696,52841.0,10.0,-0.14041466,-0.07312072,-0.98738918,1.0000001546086412,0.0,0.0,0.0,-1.3827376499999997,0.7158854499999999,9.6889702,-0.6586,-0.0771,0.019,-0.7483,4.235285636782925,-8.071841536903616,96.99790875462816,31.2
76255492551731,10.198123,52851.0,10.0,-0.14041466,-0.07312072,-0.98738918,1.0000001546086412,0.0,0.0,0.0,-1.3827376499999997,0.7158854499999999,9.67916355,-0.6586,-0.0771,0.019,-0.7483,4.235285636782925,-8.071841536903616,96.99790875462816,31.2
76255502462796,9.911065,52861.0,10.0,-0.14041466,-0.07312072,-0.98738918,1.0000001546086412,0.0,0.0,0.0,-1.3729310000000001,0.7158854499999999,9.67916355,-0.6586,-0.0771,0.019,-0.7483,4.235285636782925,-8.071841536903616,96.99790875462816,31.2
76255512607539,10.144743,52871.0,10.0,-0.14041466,-0.07312072,-0.98738918,1.0000001546086412,0.0,0.0,0.0,-1.3729310000000001,0.7158854499999999,9.6889702,-0.6586,-0.0771,0.019,-0.7483,4.235285636782925,-8.071841536903616,96.99790875462816,31.2
76255522613209,10.00567,52881.0,10.0,-0.14041466,-0.07312072,-0.98738918,1.0000001546086412,0.0,0.0,0.0,-1.3827376499999997,0.7158854499999999,9.67916355,-0.6586,-0.0771,0.019,-0.7483,4.235285636782925,-8.071841536903616,96.99790875462816,31.2
76255532627715,10.014506,52891.0,10.0,-0.14041466,-0.07312072,-0.98738918,1.0000001546086412,0.0,0.0,0.0,-1.3827376499999997,0.7158854499999999,9.669356899999999,-0.6586,-0.0771,0.019,-0.7483,4.235285636782925,-8.071841536903616,96.99790875462816,31.2
76255542622439,9.994724,52901.0,10.0,-0.14041466,-0.07312072,-0.98738918,1.0000001546086412,0.0,0.0,0.0,-1.36312435,0.7158854499999999,9.67916355,-0.6586,-0.0771,0.019,-0.7483,4.235285636782925,-8.071841536903616,96.99790875462816,31.2
76255552636207,10.013768,52911.0,10.0,-0.14041466,-0.07312072,-0.98738918,1.0000001546086412,0.0,0.0,0.0,-1.3925442999999997,0.7158854499999999,9.669356899999999,-0.6586,-0.0771,0.019,-0.7483,4.235285636782925,-8.071841536903616,96.99790875462816,31.2
76255562591415,9.955208,52921.0,10.0,-0.14041466,-0.07312072,-0.98738918,1.0000001546086412,0.0,0.0,0.0,-1.3729310000000001,0.7256921,9.67916355,-0.6586,-0.0771,0.019,-0.7483,4.235285636782925,-8.071841536903616,96.99790875462816,31.2
76255572525959,9.934544,52931.0,10.0,-0.14041466,-0.07312072,-0.98738918,1.0000001546086412,0.0,0.0,0.0,-1.3729310000000001,0.7256921,9.67916355,-0.6586,-0.0771,0.019,-0.7483,4.235285636782925,-8.071841536903616,96.99790875462816,31.2
76255582643344,10.117385,52941.0,10.0,-0.14041466,-0.07312072,-0.98738918,1.0000001546086412,0.0,0.0,0.0,-1.3729310000000001,0.7158854499999999,9.67916355,-0.6586,-0.0771,0.019,-0.7483,4.235285636782925,-8.071841536903616,96.99790875462816,31.2
76255592503833,9.860489,52951.0,10.0,-0.14041466,-0.07312072,-0.98738918,1.0000001546086412,0.0,0.0,0.0,-1.3827376499999997,0.7158854499999999,9.6889702,-0.6586,-0.0771,0.019,-0.7483,4.235285636782925,-8.071841536903616,96.99790875462816,31.2
76255602647127,10.143294,52961.0,10.0,-0.14041466,-0.07312072,-0.98738918,1.0000001546086412,0.0,0.0,0.0,-1.3827376499999997,0.7158854499999999,9.6889702,-0.6586,-0.0771,0.019,-0.7483,4.235285636782925,-8.071841536903616,96.99790875462816,31.2
76255612403285,9.756158,52971.0,10.0,-0.14041466,-0.07312072,-0.98738918,1.0000001546086412,0.0,0.0,0.0,-1.3827376499999997,0.7060787999999999,9.669356899999999,-0.6586,-0.0771,0.019,-0.7483,4.235285636782925,-8.071841536903616,96.99790875462816,31.2
76255622473876,10.070591,52981.0,10.0,-0.14041466,-0.07312072,-0.98738918,1.0000001546086412,0.0,0.0,0.0,-1.3925442999999997,0.7256921,9.67916355,-0.6586,-0.0771,0.019,-0.7483,4.235285636782925,-8.071841536903616,96.99790875462816,31.2
76255632624711,10.150835,52991.0,10.0,-0.14041466,-0.07312072,-0.98738918,1.0000001546086412,0.0,0.0,0.0,-1.3827376499999997,0.7060787999999999,9.669356899999999,-0.6586,-0.0771,0.019,-0.7483,4.235285636782925,-8.071841536903616,96.99790875462816,31.2
76255642555710,9.930999,53001.0,10.0,-0.14041466,-0.07312072,-0.98738918,1.0000001546086412,0.0,0.0,0.0,-1.3729310000000001,0.7256921,9.67916355,-0.6586,-0.0771,0.019,-0.7483,4.235285636782925,-8.071841536903616,96.99790875462816,31.2
76255652616545,10.060835,53011.0,10.0,-0.14041466,-0.07312072,-0.98738918,1.0000001546086412,0.0,0.0,0.0,-1.3729310000000001,0.7060787999999999,9.67916355,-0.6586,-0.0771,0.019,-0.7483,4.235285636782925,-8.071841536903616,96.99790875462816,31.2
76255662617077,10.000532,53021.0,10.0,-0.14041466,-0.07312072,-0.98738918,1.0000001546086412,0.0,0.0,0.0,-1.3827376499999997,0.7158854499999999,9.67916355,-0.6586,-0.0771,0.019,-0.7483,4.235285636782925,-8.071841536903616,96.99790875462816,31.2
76255672775269,10.158192,53031.0,10.0,-0.14041466,-0.07312072,-0.98738918,1.0000001546086412,0.0,0.0,0.0,-1.3827376499999997,0.7060787999999999,9.67916355,-0.6586,-0.0771,0.019,-0.7483,4.235285636782925,-8.071841536903616,96.99790875462816,31.2
76255682466773,9.691504,53041.0,10.0,-0.14041466,-0.07312072,-0.98738918,1.0000001546086412,0.0,0.0,0.0,-1.3827376499999997,0.7060787999999999,9.669356899999999,-0.6586,-0.0771,0.019,-0.7483,4.235285636782925,-8.071841536903616,96.99790875462816,31.2
76255692435541,9.968768,53051.0,10.0,-0.14041466,-0.07312072,-0.98738918,1.0000001546086412,0.0,0.0,0.0,-1.3925442999999997,0.7158854499999999,9.67916355,-0.6586,-0.0771,0.019,-0.7483,4.235285636782925,-8.071841536903616,96.99790875462816,31.2
76255702525014,10.089473,53061.0,10.0,-0.14041466,-0.07312072,-0.98738918,1.0000001546086412,0.0,0.0,0.0,-1.3827376499999997,0.7158854499999999,9.67916355,-0.6586,-0.0771,0.019,-0.7483,4.235285636782925,-8.071841536903616,96.99790875462816,31.2
76255712645819,10.120805,53071.0,10.0,-0.14041466,-0.07312072,-0.98738918,1.0000001546086412,0.0,0.0,0.0,-1.3827376499999997,0.7158854499999999,9.67916355,-0.6586,-0.0771,0.019,-0.7483,4.235285636782925,-8.071841536903616,96.99790875462816,31.2
76255722627878,9.982059,53081.0,10.0,-0.14041466,-0.07312072,-0.98738918,1.0000001546086412,0.0,0.0,0.0,-1.3729310000000001,0.7158854499999999,9.6889702,-0.6586,-0.0771,0.019,-0.7483,4.235285636782925,-8.071841536903616,96.99790875462816,31.2
76255742530443,19.902565,53101.0,20.0,-0.14041466,-0.07312072,-0.98738918,1.0000001546086412,0.0,0.0,0.0,-1.36312435,0.7158854499999999,9.67916355,-0.6586,-0.0771,0.019,-0.7483,4.235285636782925,-8.071841536903616,96.99790875462816,31.2
76256032330857,289.800414,53391.0,290.0,-0.14041466,-0.07312072,-0.98738918,1.0000001546086412,0.0,0.0,0.0,-1.3827376499999997,0.7256921,9.669356899999999,-0.6586,-0.0771,0.019,-0.7483,4.235285636782925,-8.071841536903616,96.99790875462816,31.2
76256052471884,20.141027,53411.0,20.0,-0.14041466,-0.07312072,-0.98738918,1.0000001546086412,0.0,0.0,0.0,-1.3827376499999997,0.7158854499999999,9.67916355,-0.6586,-0.0771,0.019,-0.7483,4.235285636782925,-8.071841536903616,96.99790875462816,31.2
76256062420331,9.948447,53421.0,10.0,-0.14041466,-0.07312072,-0.98738918,1.0000001546086412,0.0,0.0,0.0,-1.3827376499999997,0.7158854499999999,9.67916355,-0.6586,-0.0771,0.019,-0.7483,4.235285636782925,-8.071841536903616,96.99790875462816,31.2
76256072502531,10.0822,53431.0,10.0,-0.14041466,-0.07312072,-0.98738918,1.0000001546086412,0.0,0.0,0.0,-1.3925442999999997,0.7158854499999999,9.6889702,-0.6586,-0.0771,0.019,-0.7483,4.235285636782925,-8.071841536903616,96.99790875462816,31.2
76256082328518,9.825987,53441.0,10.0,-0.14041466,-0.07312072,-0.98738918,1.0000001546086412,0.0,0.0,0.0,-1.3827376499999997,0.7158854499999999,9.6889702,-0.6586,-0.0771,0.019,-0.7483,4.235285636782925,-8.071841536903616,96.99790875462816,31.2
76256262648427,180.319909,53621.0,180.0,-0.14041466,-0.07312072,-0.98738918,1.0000001546086412,0.0,0.0,0.0,-1.3729310000000001,0.7158854499999999,9.6889702,-0.6586,-0.0771,0.019,-0.7483,4.235285636782925,-8.071841536903616,96.99790875462816,31.2
76256312498762,49.850335,53671.0,50.0,-0.14041466,-0.07312072,-0.98738918,1.0000001546086412,0.0,0.0,0.0,-1.3729310000000001,0.7158854499999999,9.67916355,-0.6586,-0.0771,0.019,-0.7483,4.235285636782925,-8.071841536903616,96.99790875462816,31.2
76256332492533,19.993771,53691.0,20.0,-0.14041466,-0.07312072,-0.98738918,1.0000001546086412,0.0,0.0,0.0,-1.3729310000000001,0.7158854499999999,9.6889702,-0.6586,-0.0771,0.019,-0.7483,4.235285636782925,-8.071841536903616,96.99790875462816,31.2
76256362433543,29.94101,53721.0,30.0,-0.14041466,-0.07312072,-0.98738918,1.0000001546086412,0.0,0.0,0.0,-1.36312435,0.7158854499999999,9.67916355,-0.6586,-0.0771,0.019,-0.7483,4.235285636782925,-8.071841536903616,96.99790875462816,31.2
76256372381533,9.94799,53731.0,10.0,-0.14041466,-0.07312072,-0.98738918,1.0000001546086412,0.0,0.0,0.0,-1.3827376499999997,0.7158854499999999,9.67916355,-0.6586,-0.0771,0.019,-0.7483,4.235285636782925,-8.071841536903616,96.99790875462816,31.2
76256482491270,110.109737,53841.0,110.0,-0.14041466,-0.07312072,-0.98738918,1.0000001546086412,0.0,0.0,0.0,-1.3729310000000001,0.7158854499999999,9.6889702,-0.6586,-0.0771,0.019,-0.7483,4.235285636782925,-8.071841536903616,96.99790875462816,31.2
76256532582131,50.090861,53891.0,50.0,-0.14041466,-0.07312072,-0.98738918,1.0000001546086412,0.0,0.0,0.0,-1.3729310000000001,0.7256921,9.669356899999999,-0.6586,-0.0771,0.019,-0.7483,4.235285636782925,-8.071841536903616,96.99790875462816,31.2
76256542453234,9.871103,53901.0,10.0,-0.14041466,-0.07312072,-0.98738918,1.0000001546086412,0.0,0.0,0.0,-1.3533177,0.7158854499999999,9.669356899999999,-0.6586,-0.0771,0.019,-0.7483,4.235285636782925,-8.071841536903616,96.99790875462816,31.2
76256552465875,10.012641,53911.0,10.0,-0.14041466,-0.07312072,-0.98738918,1.0000001546086412,0.0,0.0,0.0,-1.36312435,0.7158854499999999,9.67916355,-0.6586,-0.0771,0.019,-0.7483,4.235285636782925,-8.071841536903616,96.99790875462816,31.2
76256562432095,9.96622,53921.0,10.0,-0.14041466,-0.07312072,-0.98738918,1.0000001546086412,0.0,0.0,0.0,-1.3925442999999997,0.7060787999999999,9.67916355,-0.6586,-0.0771,0.019,-0.7483,4.235285636782925,-8.071841536903616,96.99790875462816,31.2
76256572380269,9.948174,53931.0,10.0,-0.14041466,-0.07312072,-0.98738918,1.0000001546086412,0.0,0.0,0.0,-1.36312435,0.7256921,9.67916355,-0.6586,-0.0771,0.019,-0.7483,4.235285636782925,-8.071841536903616,96.99790875462816,31.2
76256582558684,10.178415,53941.0,10.0,-0.14041466,-0.07312072,-0.98738918,1.0000001546086412,0.0,0.0,0.0,-1.3729310000000001,0.7256921,9.6889702,-0.6586,-0.0771,0.019,-0.7483,4.235285636782925,-8.071841536903616,96.99790875462816,31.2
76256592491470,9.932786,53951.0,10.0,-0.14041466,-0.07312072,-0.98738918,1.0000001546086412,0.0,0.0,0.0,-1.3729310000000001,0.7256921,9.67916355,-0.6586,-0.0771,0.019,-0.7483,4.235285636782925,-8.071841536903616,96.99790875462816,31.2
76256602570857,10.079387,53961.0,10.0,-0.14041466,-0.07312072,-0.98738918,1.0000001546086412,0.0,0.0,0.0,-1.36312435,0.7060787999999999,9.67916355,-0.6586,-0.0771,0.019,-0.7483,4.235285636782925,-8.071841536903616,96.99790875462816,31.2
76256622270016,19.699159,53981.0,20.0,-0.14041466,-0.07312072,-0.98738918,1.0000001546086412,0.0,0.0,0.0,-1.3827376499999997,0.7158854499999999,9.6889702,-0.6586,-0.0771,0.019,-0.7483,4.235285636782925,-8.071841536903616,96.99790875462816,31.2
76256632398788,10.128772,53991.0,10.0,-0.14041466,-0.07312072,-0.98738918,1.0000001546086412,0.0,0.0,0.0,-1.3729310000000001,0.7158854499999999,9.6889702,-0.6586,-0.0771,0.019,-0.7483,4.235285636782925,-8.071841536903616,96.99790875462816,31.2
76256642450058,10.05127,54001.0,10.0,-0.14041466,-0.07312072,-0.98738918,1.0000001546086412,0.0,0.0,0.0,-1.3925442999999997,0.7158854499999999,9.67916355,-0.6586,-0.0771,0.019,-0.7483,4.235285636782925,-8.071841536903616,96.99790875462816,31.2
76256652330321,9.880263,54011.0,10.0,-0.14041466,-0.07312072,-0.98738918,1.0000001546086412,0.0,0.0,0.0,-1.3729310000000001,0.7158854499999999,9.6889702,-0.6586,-0.0771,0.019,-0.7483,4.235285636782925,-8.071841536903616,96.99790875462816,31.2
76256662426260,10.095939,54021.0,10.0,-0.14041466,-0.07312072,-0.98738918,1.0000001546086412,0.0,0.0,0.0,-1.3729310000000001,0.7060787999999999,9.669356899999999,-0.6586,-0.0771,0.019,-0.7483,4.235285636782925,-8.071841536903616,96.99790875462816,31.2
76256672476764,10.050504,54031.0,10.0,-0.14041466,-0.07312072,-0.98738918,1.0000001546086412,0.0,0.0,0.0,-1.36312435,0.7060787999999999,9.669356899999999,-0.6586,-0.0771,0.019,-0.7483,4.235285636782925,-8.071841536903616,96.99790875462816,31.2
76256682437986,9.961222,54041.0,10.0,-0.14041466,-0.07312072,-0.98738918,1.0000001546086412,0.0,0.0,0.0,-1.3729310000000001,0.7158854499999999,9.67916355,-0.6586,-0.0771,0.019,-0.7483,4.235285636782925,-8.071841536903616,96.99790875462816,31.2
76256692415559,9.977573,54051.0,10.0,-0.14041466,-0.07312072,-0.98738918,1.0000001546086412,0.0,0.0,0.0,-1.3925442999999997,0.7158854499999999,9.6889702,-0.6586,-0.0771,0.019,-0.7483,4.235285636782925,-8.071841536903616,96.99790875462816,31.2
76256702398678,9.983119,54061.0,10.0,-0.14041466,-0.07312072,-0.98738918,1.0000001546086412,0.0,0.0,0.0,-1.3729310000000001,0.7158854499999999,9.669356899999999,-0.6586,-0.0771,0.019,-0.7483,4.235285636782925,-8.071841536903616,96.99790875462816,31.2
76256712396639,9.997961,54071.0,10.0,-0.14041466,-0.07312072,-0.98738918,1.0000001546086412,0.0,0.0,0.0,-1.3729310000000001,0.6962721499999999,9.67916355,-0.6586,-0.0771,0.019,-0.7483,4.235285636782925,-8.071841536903616,96.99790875462816,31.2
76256722474170,10.077531,54081.0,10.0,-0.14041466,-0.07312072,-0.98738918,1.0000001546086412,0.0,0.0,0.0,-1.3827376499999997,0.7256921,9.67916355,-0.6586,-0.0771,0.019,-0.7483,4.235285636782925,-8.071841536903616,96.99790875462816,31.2
76256752452840,29.97867,54111.0,30.0,-0.14041466,-0.07312072,-0.98738918,1.0000001546086412,0.0,0.0,0.0,-1.3729310000000001,0.7158854499999999,9.67916355,-0.6586,-0.0771,0.019,-0.7483,4.235285636782925,-8.071841536903616,96.99790875462816,31.2
76256812470074,60.017234,54171.0,60.0,-0.14041466,-0.07312072,-0.98738918,1.0000001546086412,0.0,0.0,0.0,-1.36312435,0.7256921,9.67916355,-0.6586,-0.0771,0.019,-0.7483,4.235285636782925,-8.071841536903616,96.99790875462816,31.2
76256832422504,19.95243,54191.0,20.0,-0.14041466,-0.07312072,-0.98738918,1.0000001546086412,0.0,0.0,0.0,-1.3827376499999997,0.7158854499999999,9.67916355,-0.6586,-0.0771,0.019,-0.7483,4.235285636782925,-8.071841536903616,96.99790875462816,31.2
76256842400235,9.977731,54201.0,10.0,-0.14041466,-0.07312072,-0.98738918,1.0000001546086412,0.0,0.0,0.0,-1.36312435,0.7256921,9.6889702,-0.6586,-0.0771,0.019,-0.7483,4.235285636782925,-8.071841536903616,96.99790875462816,31.2
76256862417033,20.016798,54221.0,20.0,-0.14041466,-0.07312072,-0.98738918,1.0000001546086412,0.0,0.0,0.0,-1.3729310000000001,0.6962721499999999,9.67916355,-0.6586,-0.0771,0.019,-0.7483,4.235285636782925,-8.071841536903616,96.99790875462816,31.2
76256872336335,9.919302,54231.0,10.0,-0.14041466,-0.07312072,-0.98738918,1.0000001546086412,0.0,0.0,0.0,-1.3827376499999997,0.7158854499999999,9.67916355,-0.6586,-0.0771,0.019,-0.7483,4.235285636782925,-8.071841536903616,96.99790875462816,31.2
76256882365629,10.029294,54241.0,10.0,-0.14041466,-0.07312072,-0.98738918,1.0000001546086412,0.0,0.0,0.0,-1.3827376499999997,0.7158854499999999,9.669356899999999,-0.6586,-0.0771,0.019,-0.7483,4.235285636782925,-8.071841536903616,96.99790875462816,31.2
76256892375268,10.009639,54251.0,10.0,-0.14041466,-0.07312072,-0.98738918,1.0000001546086412,0.0,0.0,0.0,-1.3729310000000001,0.7158854499999999,9.6889702,-0.6586,-0.0771,0.019,-0.7483,4.235285636782925,-8.071841536903616,96.99790875462816,31.2
76256902373108,9.99784,54261.0,10.0,-0.14041466,-0.07312072,-0.98738918,1.0000001546086412,0.0,0.0,0.0,-1.3729310000000001,0.7256921,9.69877685,-0.6586,-0.0771,0.019,-0.7483,4.235285636782925,-8.071841536903616,96.99790875462816,31.2
76256912364865,9.991757,54271.0,10.0,-0.14041466,-0.07312072,-0.98738918,1.0000001546086412,0.0,0.0,0.0,-1.3729310000000001,0.7060787999999999,9.669356899999999,-0.6586,-0.0771,0.019,-0.7483,4.235285636782925,-8.071841536903616,96.99790875462816,31.2
76256922328458,9.963593,54281.0,10.0,-0.14041466,-0.07312072,-0.98738918,1.0000001546086412,0.0,0.0,0.0,-1.3729310000000001,0.7158854499999999,9.67916355,-0.6586,-0.0771,0.019,-0.7483,4.235285636782925,-8.071841536903616,96.99790875462816,31.2
76256932286310,9.957852,54291.0,10.0,-0.14041466,-0.07312072,-0.98738918,1.0000001546086412,0.0,0.0,0.0,-1.3729310000000001,0.7158854499999999,9.6889702,-0.6586,-0.0771,0.019,-0.7483,4.235285636782925,-8.071841536903616,96.99790875462816,31.2
76256942355440,10.06913,54301.0,10.0,-0.14041466,-0.07312072,-0.98738918,1.0000001546086412,0.0,0.0,0.0,-1.3729310000000001,0.7256921,9.659550249999999,-0.6586,-0.0771,0.019,-0.7483,4.235285636782925,-8.071841536903616,96.99790875462816,31.2
76256952386492,10.031052,54311.0,10.0,-0.14041466,-0.07312072,-0.98738918,1.0000001546086412,0.0,0.0,0.0,-1.3827376499999997,0.7060787999999999,9.67916355,-0.6586,-0.0771,0.019,-0.7483,4.235285636782925,-8.071841536903616,96.99790875462816,31.2
76256962372223,9.985731,54321.0,10.0,-0.14041466,-0.07312072,-0.98738918,1.0000001546086412,0.0,0.0,0.0,-1.36312435,0.7256921,9.67916355,-0.6586,-0.0771,0.019,-0.7483,4.235285636782925,-8.071841536903616,96.99790875462816,31.2
76256972358294,9.986071,54331.0,10.0,-0.14041466,-0.07312072,-0.98738918,1.0000001546086412,0.0,0.0,0.0,-1.3827376499999997,0.7158854499999999,9.67916355,-0.6586,-0.0771,0.019,-0.7483,4.235285636782925,-8.071841536903616,96.99790875462816,31.2
76256982232885,9.874591,54341.0,10.0,-0.14041466,-0.07312072,-0.98738918,1.0000001546086412,0.0,0.0,0.0,-1.36312435,0.7158854499999999,9.67916355,-0.6586,-0.0771,0.019,-0.7483,4.235285636782925,-8.071841536903616,96.99790875462816,31.2
76256992372908,10.140023,54351.0,10.0,-0.14041466,-0.07312072,-0.98738918,1.0000001546086412,0.0,0.0,0.0,-1.3729310000000001,0.7158854499999999,9.669356899999999,-0.6586,-0.0771,0.019,-0.7483,4.235285636782925,-8.071841536903616,96.99790875462816,31.2
76257002341517,9.968609,54361.0,10.0,-0.14041466,-0.07312072,-0.98738918,1.0000001546086412,0.0,0.0,0.0,-1.3827376499999997,0.7158854499999999,9.67916355,-0.6586,-0.0771,0.019,-0.7483,4.235285636782925,-8.071841536903616,96.99790875462816,31.2
76257012308608,9.967091,54371.0,10.0,-0.14041466,-0.07312072,-0.98738918,1.0000001546086412,0.0,0.0,0.0,-1.3827376499999997,0.7158854499999999,9.67916355,-0.6586,-0.0771,0.019,-0.7483,4.235285636782925,-8.071841536903616,96.99790875462816,31.2
76257022340918,10.03231,54381.0,10.0,-0.14041466,-0.07312072,-0.98738918,1.0000001546086412,0.0,0.0,0.0,-1.3729310000000001,0.7158854499999999,9.6889702,-0.6586,-0.0771,0.019,-0.7483,4.235285636782925,-8.071841536903616,96.99790875462816,31.2
76257032466428,10.12551,54391.0,10.0,-0.14041466,-0.07312072,-0.98738918,1.0000001546086412,0.0,0.0,0.0,-1.3827376499999997,0.7158854499999999,9.6889702,-0.6586,-0.0771,0.019,-0.7483,4.235285636782925,-8.071841536903616,96.99790875462816,31.2
76257042491229,10.024801,54401.0,10.0,-0.14041466,-0.07312072,-0.98738918,1.0000001546086412,0.0,0.0,0.0,-1.3827376499999997,0.7158854499999999,9.69877685,-0.6586,-0.0771,0.019,-0.7483,4.235285636782925,-8.071841536903616,96.99790875462816,31.2
76257062511573,20.020344,54421.0,20.0,-0.14041466,-0.07312072,-0.98738918,1.0000001546086412,0.0,0.0,0.0,-1.3827376499999997,0.7158854499999999,9.69877685,-0.6586,-0.0771,0.019,-0.7483,4.235285636782925,-8.071841536903616,96.99790875462816,31.2
76257082417609,19.906036,54441.0,20.0,-0.14041466,-0.07312072,-0.98738918,1.0000001546086412,0.0,0.0,0.0,-1.3827376499999997,0.7158854499999999,9.6889702,-0.6586,-0.0771,0.019,-0.7483,4.235285636782925,-8.071841536903616,96.99790875462816,31.2
76257092736225,10.318616,54451.0,10.0,-0.14041466,-0.07312072,-0.98738918,1.0000001546086412,0.0,0.0,0.0,-1.3729310000000001,0.7060787999999999,9.6889702,-0.6586,-0.0771,0.019,-0.7483,4.235285636782925,-8.071841536903616,96.99790875462816,31.2
76257172526802,79.790577,54531.0,80.0,-0.14041466,-0.07312072,-0.98738918,1.0000001546086412,0.0,0.0,0.0,-1.36312435,0.7158854499999999,9.67916355,-0.6586,-0.0771,0.019,-0.7483,4.235285636782925,-8.071841536903616,96.99790875462816,31.2
76257182638371,10.111569,54541.0,10.0,-0.14041466,-0.07312072,-0.98738918,1.0000001546086412,0.0,0.0,0.0,-1.3827376499999997,0.7060787999999999,9.669356899999999,-0.6586,-0.0771,0.019,-0.7483,4.235285636782925,-8.071841536903616,96.99790875462816,31.2
76257192368848,9.730477,54551.0,10.0,-0.14041466,-0.07312072,-0.98738918,1.0000001546086412,0.0,0.0,0.0,-1.3729310000000001,0.7256921,9.669356899999999,-0.6586,-0.0771,0.019,-0.7483,4.235285636782925,-8.071841536903616,96.99790875462816,31.2
76257202379292,10.010444,54561.0,10.0,-0.14041466,-0.07312072,-0.98738918,1.0000001546086412,0.0,0.0,0.0,-1.3827376499999997,0.7158854499999999,9.669356899999999,-0.6586,-0.0771,0.019,-0.7483,4.235285636782925,-8.071841536903616,96.99790875462816,31.2
76257212413000,10.033708,54571.0,10.0,-0.14041466,-0.07312072,-0.98738918,1.0000001546086412,0.0,0.0,0.0,-1.3729310000000001,0.7158854499999999,9.669356899999999,-0.6586,-0.0771,0.019,-0.7483,4.235285636782925,-8.071841536903616,96.99790875462816,31.2
76257232316781,19.903781,54591.0,20.0,-0.14041466,-0.07312072,-0.98738918,1.0000001546086412,0.0,0.0,0.0,-1.3729310000000001,0.7256921,9.67916355,-0.6586,-0.0771,0.019,-0.7483,4.235285636782925,-8.071841536903616,96.99790875462816,31.2
76257242414755,10.097974,54601.0,10.0,-0.14041466,-0.07312072,-0.98738918,1.0000001546086412,0.0,0.0,0.0,-1.36312435,0.7158854499999999,9.6889702,-0.6586,-0.0771,0.019,-0.7483,4.235285636782925,-8.071841536903616,96.99790875462816,31.2
76257252326550,9.911795,54611.0,10.0,-0.14041466,-0.07312072,-0.98738918,1.0000001546086412,0.0,0.0,0.0,-1.3729310000000001,0.7060787999999999,9.669356899999999,-0.6586,-0.0771,0.019,-0.7483,4.235285636782925,-8.071841536903616,96.99790875462816,31.2
76257262357814,10.031264,54621.0,10.0,-0.14041466,-0.07312072,-0.98738918,1.0000001546086412,0.0,0.0,0.0,-1.3827376499999997,0.7158854499999999,9.67916355,-0.6586,-0.0771,0.019,-0.7483,4.235285636782925,-8.071841536903616,96.99790875462816,31.2
76257272366246,10.008432,54631.0,10.0,-0.14041466,-0.07312072,-0.98738918,1.0000001546086412,0.0,0.0,0.0,-1.36312435,0.7158854499999999,9.6889702,-0.6586,-0.0771,0.019,-0.7483,4.235285636782925,-8.071841536903616,96.99790875462816,31.2
76257282311938,9.945692,54641.0,10.0,-0.14041466,-0.07312072,-0.98738918,1.0000001546086412,0.0,0.0,0.0,-1.3827376499999997,0.7158854499999999,9.6889702,-0.6586,-0.0771,0.019,-0.7483,4.235285636782925,-8.071841536903616,96.99790875462816,31.2
76257292291994,9.980056,54651.0,10.0,-0.14041466,-0.07312072,-0.98738918,1.0000001546086412,0.0,0.0,0.0,-1.3827376499999997,0.7158854499999999,9.67916355,-0.6586,-0.0771,0.019,-0.7483,4.235285636782925,-8.071841536903616,96.99790875462816,31.2
76257322179034,29.88704,54681.0,30.0,-0.14041466,-0.07312072,-0.98738918,1.0000001546086412,0.0,0.0,0.0,-1.36312435,0.7060787999999999,9.6889702,-0.6586,-0.0771,0.019,-0.7483,4.235285636782925,-8.071841536903616,96.99790875462816,31.2
76257352247982,30.068948,54711.0,30.0,-0.14041466,-0.07312072,-0.98738918,1.0000001546086412,0.0,0.0,0.0,-1.3827376499999997,0.7256921,9.6889702,-0.6586,-0.0771,0.019,-0.7483,4.235285636782925,-8.071841536903616,96.99790875462816,31.2
76257362359698,10.111716,54721.0,10.0,-0.14041466,-0.07312072,-0.98738918,1.0000001546086412,0.0,0.0,0.0,-1.3827376499999997,0.7158854499999999,9.669356899999999,-0.6586,-0.0771,0.019,-0.7483,4.235285636782925,-8.071841536903616,96.99790875462816,31.2
76257382244159,19.884461,54741.0,20.0,-0.14041466,-0.07312072,-0.98738918,1.0000001546086412,0.0,0.0,0.0,-1.3827376499999997,0.7158854499999999,9.6889702,-0.6586,-0.0771,0.019,-0.7483,4.235285636782925,-8.071841536903616,96.99790875462816,31.2
76257392300311,10.056152,54751.0,10.0,-0.14041466,-0.07312072,-0.98738918,1.0000001546086412,0.0,0.0,0.0,-1.3729310000000001,0.7158854499999999,9.6889702,-0.6586,-0.0771,0.019,-0.7483,4.235285636782925,-8.071841536903616,96.99790875462816,31.2
76257402294707,9.994396,54761.0,10.0,-0.14041466,-0.07312072,-0.98738918,1.0000001546086412,0.0,0.0,0.0,-1.3827376499999997,0.7158854499999999,9.6889702,-0.6586,-0.0771,0.019,-0.7483,4.235285636782925,-8.071841536903616,96.99790875462816,31.2
76257452398261,50.103554,54811.0,50.0,-0.14041466,-0.07312072,-0.98738918,1.0000001546086412,0.0,0.0,0.0,-1.3729310000000001,0.7060787999999999,9.67916355,-0.6586,-0.0771,0.019,-0.7483,4.235285636782925,-8.071841536903616,96.99790875462816,31.2
76257462366690,9.968429,54821.0,10.0,-0.14041466,-0.07312072,-0.98738918,1.0000001546086412,0.0,0.0,0.0,-1.3827376499999997,0.7060787999999999,9.67916355,-0.6586,-0.0771,0.019,-0.7483,4.235285636782925,-8.071841536903616,96.99790875462816,31.2
76257472308570,9.94188,54831.0,10.0,-0.14041466,-0.07312072,-0.98738918,1.0000001546086412,0.0,0.0,0.0,-1.3925442999999997,0.7060787999999999,9.6889702,-0.6586,-0.0771,0.019,-0.7483,4.235285636782925,-8.071841536903616,96.99790875462816,31.2
76257482314343,10.005773,54841.0,10.0,-0.14041466,-0.07312072,-0.98738918,1.0000001546086412,0.0,0.0,0.0,-1.3827376499999997,0.7060787999999999,9.67916355,-0.6586,-0.0771,0.019,-0.7483,4.235285636782925,-8.071841536903616,96.99790875462816,31.2
76257492457277,10.142934,54851.0,10.0,-0.14041466,-0.07312072,-0.98738918,1.0000001546086412,0.0,0.0,0.0,-1.3827376499999997,0.7158854499999999,9.67916355,-0.6586,-0.0771,0.019,-0.7483,4.235285636782925,-8.071841536903616,96.99790875462816,31.2
76257512583187,20.12591,54871.0,20.0,-0.14041466,-0.07312072,-0.98738918,1.0000001546086412,0.0,0.0,0.0,-1.3827376499999997,0.7158854499999999,9.67916355,-0.6586,-0.0771,0.019,-0.7483,4.235285636782925,-8.071841536903616,96.99790875462816,31.2
76257522455139,9.871952,54881.0,10.0,-0.14041466,-0.07312072,-0.98738918,1.0000001546086412,0.0,0.0,0.0,-1.3729310000000001,0.7256921,9.67916355,-0.6586,-0.0771,0.019,-0.7483,4.235285636782925,-8.071841536903616,96.99790875462816,31.2
76257532377516,9.922377,54891.0,10.0,-0.14041466,-0.07312072,-0.98738918,1.0000001546086412,0.0,0.0,0.0,-1.3827376499999997,0.7158854499999999,9.6889702,-0.6586,-0.0771,0.019,-0.7483,4.235285636782925,-8.071841536903616,96.99790875462816,31.2
76257542434275,10.056759,54901.0,10.0,-0.14041466,-0.07312072,-0.98738918,1.0000001546086412,0.0,0.0,0.0,-1.3729310000000001,0.7158854499999999,9.67916355,-0.6586,-0.0771,0.019,-0.7483,4.235285636782925,-8.071841536903616,96.99790875462816,31.2
76257922449719,380.015444,55281.0,380.0,-0.14054638,-0.07297106,-0.98738156,1.0000002027783101,0.0,0.0,0.0,-1.3925442999999997,0.7158854499999999,9.6889702,-0.6586,-0.0771,0.0191,-0.7483,4.226681003311592,-8.07946412683686,96.99845514929865,31.2
76257982322804,59.873085,55341.0,60.0,-0.14041466,-0.07312072,-0.98738918,1.0000001546086412,0.0,0.0,0.0,-1.3729310000000001,0.7256921,9.67916355,-0.6586,-0.0771,0.019,-0.7483,4.235285636782925,-8.071841536903616,96.99790875462816,31.2
76258232536989,250.214185,55591.0,250.0,-0.14041466,-0.07312072,-0.98738918,1.0000001546086412,0.0,0.0,0.0,-1.36312435,0.7060787999999999,9.67916355,-0.6586,-0.0771,0.019,-0.7483,4.235285636782925,-8.071841536903616,96.99790875462816,31.2
76258292446052,59.909063,55651.0,60.0,-0.14041466,-0.07312072,-0.98738918,1.0000001546086412,0.0,0.0,0.0,-1.3729310000000001,0.7256921,9.669356899999999,-0.6586,-0.0771,0.019,-0.7483,4.235285636782925,-8.071841536903616,96.99790875462816,31.2
76258302353496,9.907444,55661.0,10.0,-0.14041466,-0.07312072,-0.98738918,1.0000001546086412,0.0,0.0,0.0,-1.3729310000000001,0.7256921,9.6889702,-0.6586,-0.0771,0.019,-0.7483,4.235285636782925,-8.071841536903616,96.99790875462816,31.2
76258322458954,20.105458,55681.0,20.0,-0.14041466,-0.07312072,-0.98738918,1.0000001546086412,0.0,0.0,0.0,-1.3729310000000001,0.7060787999999999,9.67916355,-0.6586,-0.0771,0.019,-0.7483,4.235285636782925,-8.071841536903616,96.99790875462816,31.2
76258342442670,19.983716,55701.0,20.0,-0.14041466,-0.07312072,-0.98738918,1.0000001546086412,0.0,0.0,0.0,-1.3827376499999997,0.7158854499999999,9.67916355,-0.6586,-0.0771,0.019,-0.7483,4.235285636782925,-8.071841536903616,96.99790875462816,31.2
76258352424596,9.981926,55711.0,10.0,-0.14041466,-0.07312072,-0.98738918,1.0000001546086412,0.0,0.0,0.0,-1.3925442999999997,0.7060787999999999,9.6889702,-0.6586,-0.0771,0.019,-0.7483,4.235285636782925,-8.071841536903616,96.99790875462816,31.2
76258392390367,39.965771,55751.0,40.0,-0.14041466,-0.07312072,-0.98738918,1.0000001546086412,0.0,0.0,0.0,-1.3827376499999997,0.7158854499999999,9.669356899999999,-0.6586,-0.0771,0.019,-0.7483,4.235285636782925,-8.071841536903616,96.99790875462816,31.2
76258402434468,10.044101,55761.0,10.0,-0.14041466,-0.07312072,-0.98738918,1.0000001546086412,0.0,0.0,0.0,-1.3827376499999997,0.7158854499999999,9.67916355,-0.6586,-0.0771,0.019,-0.7483,4.235285636782925,-8.071841536903616,96.99790875462816,31.2
76258412443405,10.008937,55771.0,10.0,-0.14041466,-0.07312072,-0.98738918,1.0000001546086412,0.0,0.0,0.0,-1.3729310000000001,0.7158854499999999,9.67916355,-0.6586,-0.0771,0.019,-0.7483,4.235285636782925,-8.071841536903616,96.99790875462816,31.2
76258422436728,9.993323,55781.0,10.0,-0.14041466,-0.07312072,-0.98738918,1.0000001546086412,0.0,0.0,0.0,-1.3729310000000001,0.7158854499999999,9.67916355,-0.6586,-0.0771,0.019,-0.7483,4.235285636782925,-8.071841536903616,96.99790875462816,31.2
76258782456589,360.019861,56141.0,360.0,-0.14041466,-0.07312072,-0.98738918,1.0000001546086412,0.0,0.0,0.0,-1.3827376499999997,0.7158854499999999,9.67916355,-0.6586,-0.0771,0.019,-0.7483,4.235285636782925,-8.071841536903616,96.99790875462816,31.2
76258792461884,10.005295,56151.0,10.0,-0.14041466,-0.07312072,-0.98738918,1.0000001546086412,0.0,0.0,0.0,-1.3729310000000001,0.7158854499999999,9.67916355,-0.6586,-0.0771,0.019,-0.7483,4.235285636782925,-8.071841536903616,96.99790875462816,31.2
76258802455768,9.993884,56161.0,10.0,-0.14041466,-0.07312072,-0.98738918,1.0000001546086412,0.0,0.0,0.0,-1.3925442999999997,0.7158854499999999,9.669356899999999,-0.6586,-0.0771,0.019,-0.7483,4.235285636782925,-8.071841536903616,96.99790875462816,31.2
76258812501530,10.045762,56171.0,10.0,-0.14041466,-0.07312072,-0.98738918,1.0000001546086412,0.0,0.0,0.0,-1.3729310000000001,0.7158854499999999,9.67916355,-0.6586,-0.0771,0.019,-0.7483,4.235285636782925,-8.071841536903616,96.99790875462816,31.2
76258822526720,10.02519,56181.0,10.0,-0.14041466,-0.07312072,-0.98738918,1.0000001546086412,0.0,0.0,0.0,-1.3827376499999997,0.73549875,9.67916355,-0.6586,-0.0771,0.019,-0.7483,4.235285636782925,-8.071841536903616,96.99790875462816,31.2
76258832456445,9.929725,56191.0,10.0,-0.14041466,-0.07312072,-0.98738918,1.0000001546086412,0.0,0.0,0.0,-1.3827376499999997,0.7158854499999999,9.67916355,-0.6586,-0.0771,0.019,-0.7483,4.235285636782925,-8.071841536903616,96.99790875462816,31.2
76258852463420,20.006975,56211.0,20.0,-0.14041466,-0.07312072,-0.98738918,1.0000001546086412,0.0,0.0,0.0,-1.3827376499999997,0.7158854499999999,9.669356899999999,-0.6586,-0.0771,0.019,-0.7483,4.235285636782925,-8.071841536903616,96.99790875462816,31.2
76258872402669,19.939249,56231.0,20.0,-0.14041466,-0.07312072,-0.98738918,1.0000001546086412,0.0,0.0,0.0,-1.3729310000000001,0.7060787999999999,9.67916355,-0.6586,-0.0771,0.019,-0.7483,4.235285636782925,-8.071841536903616,96.99790875462816,31.2
76258882559152,10.156483,56241.0,10.0,-0.14041466,-0.07312072,-0.98738918,1.0000001546086412,0.0,0.0,0.0,-1.36312435,0.7158854499999999,9.67916355,-0.6586,-0.0771,0.019,-0.7483,4.235285636782925,-8.071841536903616,96.99790875462816,31.2
76258892529843,9.970691,56251.0,10.0,-0.14041466,-0.07312072,-0.98738918,1.0000001546086412,0.0,0.0,0.0,-1.3827376499999997,0.6962721499999999,9.67916355,-0.6586,-0.0771,0.019,-0.7483,4.235285636782925,-8.071841536903616,96.99790875462816,31.2
76258932372393,39.84255,56291.0,40.0,-0.14041466,-0.07312072,-0.98738918,1.0000001546086412,0.0,0.0,0.0,-1.3729310000000001,0.7158854499999999,9.67916355,-0.6586,-0.0771,0.019,-0.7483,4.235285636782925,-8.071841536903616,96.99790875462816,31.2
76258952302189,19.929796,56311.0,20.0,-0.14041466,-0.07312072,-0.98738918,1.0000001546086412,0.0,0.0,0.0,-1.3827376499999997,0.7060787999999999,9.669356899999999,-0.6586,-0.0771,0.019,-0.7483,4.235285636782925,-8.071841536903616,96.99790875462816,31.2
76258962326234,10.024045,56321.0,10.0,-0.14041466,-0.07312072,-0.98738918,1.0000001546086412,0.0,0.0,0.0,-1.3729310000000001,0.7158854499999999,9.67916355,-0.6586,-0.0771,0.019,-0.7483,4.235285636782925,-8.071841536903616,96.99790875462816,31.2
76258982314338,19.988104,56341.0,20.0,-0.14041466,-0.07312072,-0.98738918,1.0000001546086412,0.0,0.0,0.0,-1.3729310000000001,0.7158854499999999,9.669356899999999,-0.6586,-0.0771,0.019,-0.7483,4.235285636782925,-8.071841536903616,96.99790875462816,31.2
76259002454010,20.139672,56361.0,20.0,-0.14041466,-0.07312072,-0.98738918,1.0000001546086412,0.0,0.0,0.0,-1.36312435,0.7256921,9.669356899999999,-0.6586,-0.0771,0.019,-0.7483,4.235285636782925,-8.071841536903616,96.99790875462816,31.2
76259032465109,30.011099,56391.0,30.0,-0.14041466,-0.07312072,-0.98738918,1.0000001546086412,0.0,0.0,0.0,-1.3729310000000001,0.7158854499999999,9.67916355,-0.6586,-0.0771,0.019,-0.7483,4.235285636782925,-8.071841536903616,96.99790875462816,31.2
76259042460891,9.995782,56401.0,10.0,-0.14041466,-0.07312072,-0.98738918,1.0000001546086412,0.0,0.0,0.0,-1.3729310000000001,0.7158854499999999,9.67916355,-0.6586,-0.0771,0.019,-0.7483,4.235285636782925,-8.071841536903616,96.99790875462816,31.2
76259612395606,569.934715,56971.0,570.0,-0.14041466,-0.07312072,-0.98738918,1.0000001546086412,0.0,0.0,0.0,-1.3827376499999997,0.7060787999999999,9.67916355,-0.6586,-0.0771,0.019,-0.7483,4.235285636782925,-8.071841536903616,96.99790875462816,31.2
76259812385154,199.989548,57171.0,200.0,-0.14041466,-0.07312072,-0.98738918,1.0000001546086412,0.0,0.0,0.0,-1.3827376499999997,0.7158854499999999,9.67916355,-0.6586,-0.0771,0.019,-0.7483,4.235285636782925,-8.071841536903616,96.99790875462816,31.2
76259982536375,170.151221,57341.0,170.0,-0.14041466,-0.07312072,-0.98738918,1.0000001546086412,0.0,0.0,0.0,-1.3729310000000001,0.7256921,9.67916355,-0.6586,-0.0771,0.019,-0.7483,4.235285636782925,-8.071841536903616,96.99790875462816,31.2
76260012568626,30.032251,57371.0,30.0,-0.14041466,-0.07312072,-0.98738918,1.0000001546086412,0.0,0.0,0.0,-1.3729310000000001,0.7060787999999999,9.67916355,-0.6586,-0.0771,0.019,-0.7483,4.235285636782925,-8.071841536903616,96.99790875462816,31.2
76260022456265,9.887639,57381.0,10.0,-0.14041466,-0.07312072,-0.98738918,1.0000001546086412,0.0,0.0,0.0,-1.3827376499999997,0.7158854499999999,9.6889702,-0.6586,-0.0771,0.019,-0.7483,4.235285636782925,-8.071841536903616,96.99790875462816,31.2
76260032582236,10.125971,57391.0,10.0,-0.14041466,-0.07312072,-0.98738918,1.0000001546086412,0.0,0.0,0.0,-1.3925442999999997,0.7060787999999999,9.67916355,-0.6586,-0.0771,0.019,-0.7483,4.235285636782925,-8.071841536903616,96.99790875462816,31.2
76260042522432,9.940196,57401.0,10.0,-0.14041466,-0.07312072,-0.98738918,1.0000001546086412,0.0,0.0,0.0,-1.3827376499999997,0.7158854499999999,9.67916355,-0.6586,-0.0771,0.019,-0.7483,4.235285636782925,-8.071841536903616,96.99790875462816,31.2
76260062620349,20.097917,57421.0,20.0,-0.14041466,-0.07312072,-0.98738918,1.0000001546086412,0.0,0.0,0.0,-1.3827376499999997,0.7158854499999999,9.67916355,-0.6586,-0.0771,0.019,-0.7483,4.235285636782925,-8.071841536903616,96.99790875462816,31.2
76260112637272,50.016923,57471.0,50.0,-0.14041466,-0.07312072,-0.98738918,1.0000001546086412,0.0,0.0,0.0,-1.3729310000000001,0.7158854499999999,9.6889702,-0.6586,-0.0771,0.019,-0.7483,4.235285636782925,-8.071841536903616,96.99790875462816,31.2
76260122447446,9.810174,57481.0,10.0,-0.14041466,-0.07312072,-0.98738918,1.0000001546086412,0.0,0.0,0.0,-1.3729310000000001,0.7158854499999999,9.67916355,-0.6586,-0.0771,0.019,-0.7483,4.235285636782925,-8.071841536903616,96.99790875462816,31.2
76260192442717,69.995271,57551.0,70.0,-0.14041466,-0.07312072,-0.98738918,1.0000001546086412,0.0,0.0,0.0,-1.3827376499999997,0.7158854499999999,9.67916355,-0.6586,-0.0771,0.019,-0.7483,4.235285636782925,-8.071841536903616,96.99790875462816,31.2
76260202421644,9.978927,57561.0,10.0,-0.14041466,-0.07312072,-0.98738918,1.0000001546086412,0.0,0.0,0.0,-1.3729310000000001,0.7158854499999999,9.67916355,-0.6586,-0.0771,0.019,-0.7483,4.235285636782925,-8.071841536903616,96.99790875462816,31.2
76260212594913,10.173269,57571.0,10.0,-0.14041466,-0.07312072,-0.98738918,1.0000001546086412,0.0,0.0,0.0,-1.3827376499999997,0.7158854499999999,9.67916355,-0.6586,-0.0771,0.019,-0.7483,4.235285636782925,-8.071841536903616,96.99790875462816,31.2
76260222410973,9.81606,57581.0,10.0,-0.14041466,-0.07312072,-0.98738918,1.0000001546086412,0.0,0.0,0.0,-1.36312435,0.7060787999999999,9.669356899999999,-0.6586,-0.0771,0.019,-0.7483,4.235285636782925,-8.071841536903616,96.99790875462816,31.2
76260232411623,10.00065,57591.0,10.0,-0.14041466,-0.07312072,-0.98738918,1.0000001546086412,0.0,0.0,0.0,-1.3729310000000001,0.7158854499999999,9.69877685,-0.6586,-0.0771,0.019,-0.7483,4.235285636782925,-8.071841536903616,96.99790875462816,31.2
76260242415447,10.003824,57601.0,10.0,-0.14041466,-0.07312072,-0.98738918,1.0000001546086412,0.0,0.0,0.0,-1.3827376499999997,0.7158854499999999,9.67916355,-0.6586,-0.0771,0.019,-0.7483,4.235285636782925,-8.071841536903616,96.99790875462816,31.2
76260252514952,10.099505,57611.0,10.0,-0.14041466,-0.07312072,-0.98738918,1.0000001546086412,0.0,0.0,0.0,-1.36312435,0.7158854499999999,9.69877685,-0.6586,-0.0771,0.019,-0.7483,4.235285636782925,-8.071841536903616,96.99790875462816,31.2
76260262411574,9.896622,57621.0,10.0,-0.14041466,-0.07312072,-0.98738918,1.0000001546086412,0.0,0.0,0.0,-1.3729310000000001,0.7158854499999999,9.6889702,-0.6586,-0.0771,0.019,-0.7483,4.235285636782925,-8.071841536903616,96.99790875462816,31.2
76260272459042,10.047468,57631.0,10.0,-0.14041466,-0.07312072,-0.98738918,1.0000001546086412,0.0,0.0,0.0,-1.3827376499999997,0.7158854499999999,9.669356899999999,-0.6586,-0.0771,0.019,-0.7483,4.235285636782925,-8.071841536903616,96.99790875462816,31.2
76260282423368,9.964326,57641.0,10.0,-0.14041466,-0.07312072,-0.98738918,1.0000001546086412,0.0,0.0,0.0,-1.3827376499999997,0.7158854499999999,9.67916355,-0.6586,-0.0771,0.019,-0.7483,4.235285636782925,-8.071841536903616,96.99790875462816,31.2
76260292345946,9.922578,57651.0,10.0,-0.14041466,-0.07312072,-0.98738918,1.0000001546086412,0.0,0.0,0.0,-1.3827376499999997,0.7158854499999999,9.67916355,-0.6586,-0.0771,0.019,-0.7483,4.235285636782925,-8.071841536903616,96.99790875462816,31.2
76260302331701,9.985755,57661.0,10.0,-0.14041466,-0.07312072,-0.98738918,1.0000001546086412,0.0,0.0,0.0,-1.3827376499999997,0.7256921,9.67916355,-0.6586,-0.0771,0.019,-0.7483,4.235285636782925,-8.071841536903616,96.99790875462816,31.2
76260312399596,10.067895,57671.0,10.0,-0.14041466,-0.07312072,-0.98738918,1.0000001546086412,0.0,0.0,0.0,-1.3827376499999997,0.7158854499999999,9.67916355,-0.6586,-0.0771,0.019,-0.7483,4.235285636782925,-8.071841536903616,96.99790875462816,31.2
76260322359866,9.96027,57681.0,10.0,-0.14041466,-0.07312072,-0.98738918,1.0000001546086412,0.0,0.0,0.0,-1.3729310000000001,0.7158854499999999,9.67916355,-0.6586,-0.0771,0.019,-0.7483,4.235285636782925,-8.071841536903616,96.99790875462816,31.2
76260332468154,10.108288,57691.0,10.0,-0.14041466,-0.07312072,-0.98738918,1.0000001546086412,0.0,0.0,0.0,-1.3729310000000001,0.7158854499999999,9.6889702,-0.6586,-0.0771,0.019,-0.7483,4.235285636782925,-8.071841536903616,96.99790875462816,31.2
76260342362681,9.894527,57701.0,10.0,-0.14041466,-0.07312072,-0.98738918,1.0000001546086412,0.0,0.0,0.0,-1.36312435,0.7256921,9.67916355,-0.6586,-0.0771,0.019,-0.7483,4.235285636782925,-8.071841536903616,96.99790875462816,31.2
76260352348636,9.985955,57711.0,10.0,-0.14041466,-0.07312072,-0.98738918,1.0000001546086412,0.0,0.0,0.0,-1.36312435,0.7158854499999999,9.67916355,-0.6586,-0.0771,0.019,-0.7483,4.235285636782925,-8.071841536903616,96.99790875462816,31.2
76260372379828,20.031192,57731.0,20.0,-0.14041466,-0.07312072,-0.98738918,1.0000001546086412,0.0,0.0,0.0,-1.36312435,0.7158854499999999,9.669356899999999,-0.6586,-0.0771,0.019,-0.7483,4.235285636782925,-8.071841536903616,96.99790875462816,31.2
76260382536659,10.156831,57741.0,10.0,-0.14041466,-0.07312072,-0.98738918,1.0000001546086412,0.0,0.0,0.0,-1.3729310000000001,0.7158854499999999,9.67916355,-0.6586,-0.0771,0.019,-0.7483,4.235285636782925,-8.071841536903616,96.99790875462816,31.2
76260392322533,9.785874,57751.0,10.0,-0.14041466,-0.07312072,-0.98738918,1.0000001546086412,0.0,0.0,0.0,-1.36312435,0.7060787999999999,9.67916355,-0.6586,-0.0771,0.019,-0.7483,4.235285636782925,-8.071841536903616,96.99790875462816,31.2
76260402416533,10.094,57761.0,10.0,-0.14041466,-0.07312072,-0.98738918,1.0000001546086412,0.0,0.0,0.0,-1.3827376499999997,0.7158854499999999,9.67916355,-0.6586,-0.0771,0.019,-0.7483,4.235285636782925,-8.071841536903616,96.99790875462816,31.2
76260412419398,10.002865,57771.0,10.0,-0.14041466,-0.07312072,-0.98738918,1.0000001546086412,0.0,0.0,0.0,-1.3729310000000001,0.7158854499999999,9.67916355,-0.6586,-0.0771,0.019,-0.7483,4.235285636782925,-8.071841536903616,96.99790875462816,31.2
76260422378913,9.959515,57781.0,10.0,-0.14041466,-0.07312072,-0.98738918,1.0000001546086412,0.0,0.0,0.0,-1.3729310000000001,0.7158854499999999,9.67916355,-0.6586,-0.0771,0.019,-0.7483,4.235285636782925,-8.071841536903616,96.99790875462816,31.2
76260432538317,10.159404,57791.0,10.0,-0.14041466,-0.07312072,-0.98738918,1.0000001546086412,0.0,0.0,0.0,-1.3729310000000001,0.7060787999999999,9.6889702,-0.6586,-0.0771,0.019,-0.7483,4.235285636782925,-8.071841536903616,96.99790875462816,31.2
76260442509108,9.970791,57801.0,10.0,-0.14041466,-0.07312072,-0.98738918,1.0000001546086412,0.0,0.0,0.0,-1.3729310000000001,0.7256921,9.67916355,-0.6586,-0.0771,0.019,-0.7483,4.235285636782925,-8.071841536903616,96.99790875462816,31.2
76260482300994,39.791886,57841.0,40.0,-0.14041466,-0.07312072,-0.98738918,1.0000001546086412,0.0,0.0,0.0,-1.3729310000000001,0.7256921,9.69877685,-0.6586,-0.0771,0.019,-0.7483,4.235285636782925,-8.071841536903616,96.99790875462816,31.2
76260622485370,140.184376,57981.0,140.0,-0.14041466,-0.07312072,-0.98738918,1.0000001546086412,0.0,0.0,0.0,-1.36312435,0.7256921,9.6889702,-0.6586,-0.0771,0.019,-0.7483,4.235285636782925,-8.071841536903616,96.99790875462816,31.2
76260632678304,10.192934,57991.0,10.0,-0.14041466,-0.07312072,-0.98738918,1.0000001546086412,0.0,0.0,0.0,-1.3827376499999997,0.7158854499999999,9.6889702,-0.6586,-0.0771,0.019,-0.7483,4.235285636782925,-8.071841536903616,96.99790875462816,31.2
76260642638782,9.960478,58001.0,10.0,-0.14041466,-0.07312072,-0.98738918,1.0000001546086412,0.0,0.0,0.0,-1.3827376499999997,0.7158854499999999,9.67916355,-0.6586,-0.0771,0.019,-0.7483,4.235285636782925,-8.071841536903616,96.99790875462816,31.2
76260652446792,9.80801,58011.0,10.0,-0.14041466,-0.07312072,-0.98738918,1.0000001546086412,0.0,0.0,0.0,-1.3827376499999997,0.7060787999999999,9.6889702,-0.6586,-0.0771,0.019,-0.7483,4.235285636782925,-8.071841536903616,96.99790875462816,31.2
76260662659712,10.21292,58021.0,10.0,-0.14041466,-0.07312072,-0.98738918,1.0000001546086412,0.0,0.0,0.0,-1.3827376499999997,0.7256921,9.67916355,-0.6586,-0.0771,0.019,-0.7483,4.235285636782925,-8.071841536903616,96.99790875462816,31.2
76260672522538,9.862826,58031.0,10.0,-0.14041466,-0.07312072,-0.98738918,1.0000001546086412,0.0,0.0,0.0,-1.3827376499999997,0.7158854499999999,9.67916355,-0.6586,-0.0771,0.019,-0.7483,4.235285636782925,-8.071841536903616,96.99790875462816,31.2
76260682433334,9.910796,58041.0,10.0,-0.14041466,-0.07312072,-0.98738918,1.0000001546086412,0.0,0.0,0.0,-1.36312435,0.7158854499999999,9.67916355,-0.6586,-0.0771,0.019,-0.7483,4.235285636782925,-8.071841536903616,96.99790875462816,31.2
76260692357129,9.923795,58051.0,10.0,-0.14041466,-0.07312072,-0.98738918,1.0000001546086412,0.0,0.0,0.0,-1.3729310000000001,0.7060787999999999,9.669356899999999,-0.6586,-0.0771,0.019,-0.7483,4.235285636782925,-8.071841536903616,96.99790875462816,31.2
76260702447815,10.090686,58061.0,10.0,-0.14041466,-0.07312072,-0.98738918,1.0000001546086412,0.0,0.0,0.0,-1.3729310000000001,0.7158854499999999,9.69877685,-0.6586,-0.0771,0.019,-0.7483,4.235285636782925,-8.071841536903616,96.99790875462816,31.2
76260712349287,9.901472,58071.0,10.0,-0.14041466,-0.07312072,-0.98738918,1.0000001546086412,0.0,0.0,0.0,-1.3827376499999997,0.7158854499999999,9.67916355,-0.6586,-0.0771,0.019,-0.7483,4.235285636782925,-8.071841536903616,96.99790875462816,31.2
76260722375569,10.026282,58081.0,10.0,-0.14041466,-0.07312072,-0.98738918,1.0000001546086412,0.0,0.0,0.0,-1.3729310000000001,0.7256921,9.67916355,-0.6586,-0.0771,0.019,-0.7483,4.235285636782925,-8.071841536903616,96.99790875462816,31.2
76260762468668,40.093099,58121.0,40.0,-0.14041466,-0.07312072,-0.98738918,1.0000001546086412,0.0,0.0,0.0,-1.3827376499999997,0.7158854499999999,9.67916355,-0.6586,-0.0771,0.019,-0.7483,4.235285636782925,-8.071841536903616,96.99790875462816,31.2
76260772408900,9.940232,58131.0,10.0,-0.14041466,-0.07312072,-0.98738918,1.0000001546086412,0.0,0.0,0.0,-1.3827376499999997,0.7256921,9.6889702,-0.6586,-0.0771,0.019,-0.7483,4.235285636782925,-8.071841536903616,96.99790875462816,31.2
76260782407662,9.998762,58141.0,10.0,-0.14041466,-0.07312072,-0.98738918,1.0000001546086412,0.0,0.0,0.0,-1.3729310000000001,0.7060787999999999,9.67916355,-0.6586,-0.0771,0.019,-0.7483,4.235285636782925,-8.071841536903616,96.99790875462816,31.2
76260792469989,10.062327,58151.0,10.0,-0.14041466,-0.07312072,-0.98738918,1.0000001546086412,0.0,0.0,0.0,-1.3729310000000001,0.7158854499999999,9.669356899999999,-0.6586,-0.0771,0.019,-0.7483,4.235285636782925,-8.071841536903616,96.99790875462816,31.2
76260802457516,9.987527,58161.0,10.0,-0.14041466,-0.07312072,-0.98738918,1.0000001546086412,0.0,0.0,0.0,-1.3729310000000001,0.7158854499999999,9.669356899999999,-0.6586,-0.0771,0.019,-0.7483,4.235285636782925,-8.071841536903616,96.99790875462816,31.2
76260812536302,10.078786,58171.0,10.0,-0.14041466,-0.07312072,-0.98738918,1.0000001546086412,0.0,0.0,0.0,-1.3827376499999997,0.7158854499999999,9.6889702,-0.6586,-0.0771,0.019,-0.7483,4.235285636782925,-8.071841536903616,96.99790875462816,31.2
76260822553140,10.016838,58181.0,10.0,-0.14041466,-0.07312072,-0.98738918,1.0000001546086412,0.0,0.0,0.0,-1.3729310000000001,0.7158854499999999,9.67916355,-0.6586,-0.0771,0.019,-0.7483,4.235285636782925,-8.071841536903616,96.99790875462816,31.2
76260832571873,10.018733,58191.0,10.0,-0.14041466,-0.07312072,-0.98738918,1.0000001546086412,0.0,0.0,0.0,-1.3827376499999997,0.7158854499999999,9.6889702,-0.6586,-0.0771,0.019,-0.7483,4.235285636782925,-8.071841536903616,96.99790875462816,31.2
76260842562403,9.99053,58201.0,10.0,-0.14041466,-0.07312072,-0.98738918,1.0000001546086412,0.0,0.0,0.0,-1.3729310000000001,0.7060787999999999,9.67916355,-0.6586,-0.0771,0.019,-0.7483,4.235285636782925,-8.071841536903616,96.99790875462816,31.2
76260852541264,9.978861,58211.0,10.0,-0.14041466,-0.07312072,-0.98738918,1.0000001546086412,0.0,0.0,0.0,-1.3729310000000001,0.7158854499999999,9.669356899999999,-0.6586,-0.0771,0.019,-0.7483,4.235285636782925,-8.071841536903616,96.99790875462816,31.2
76260862460571,9.919307,58221.0,10.0,-0.14041466,-0.07312072,-0.98738918,1.0000001546086412,0.0,0.0,0.0,-1.3729310000000001,0.7256921,9.6889702,-0.6586,-0.0771,0.019,-0.7483,4.235285636782925,-8.071841536903616,96.99790875462816,31.2
76260872366957,9.906386,58231.0,10.0,-0.14041466,-0.07312072,-0.98738918,1.0000001546086412,0.0,0.0,0.0,-1.3729310000000001,0.7158854499999999,9.6889702,-0.6586,-0.0771,0.019,-0.7483,4.235285636782925,-8.071841536903616,96.99790875462816,31.2
76260882531010,10.164053,58241.0,10.0,-0.14041466,-0.07312072,-0.98738918,1.0000001546086412,0.0,0.0,0.0,-1.3827376499999997,0.7256921,9.67916355,-0.6586,-0.0771,0.019,-0.7483,4.235285636782925,-8.071841536903616,96.99790875462816,31.2
76260892423092,9.892082,58251.0,10.0,-0.14041466,-0.07312072,-0.98738918,1.0000001546086412,0.0,0.0,0.0,-1.3827376499999997,0.7158854499999999,9.67916355,-0.6586,-0.0771,0.019,-0.7483,4.235285636782925,-8.071841536903616,96.99790875462816,31.2
76260902560149,10.137057,58261.0,10.0,-0.14041466,-0.07312072,-0.98738918,1.0000001546086412,0.0,0.0,0.0,-1.3533177,0.7158854499999999,9.67916355,-0.6586,-0.0771,0.019,-0.7483,4.235285636782925,-8.071841536903616,96.99790875462816,31.2
76260912576287,10.016138,58271.0,10.0,-0.14041466,-0.07312072,-0.98738918,1.0000001546086412,0.0,0.0,0.0,-1.36312435,0.7158854499999999,9.67916355,-0.6586,-0.0771,0.019,-0.7483,4.235285636782925,-8.071841536903616,96.99790875462816,31.2
76260922554915,9.978628,58281.0,10.0,-0.14041466,-0.07312072,-0.98738918,1.0000001546086412,0.0,0.0,0.0,-1.36312435,0.7060787999999999,9.67916355,-0.6586,-0.0771,0.019,-0.7483,4.235285636782925,-8.071841536903616,96.99790875462816,31.2
76260932539931,9.985016,58291.0,10.0,-0.14041466,-0.07312072,-0.98738918,1.0000001546086412,0.0,0.0,0.0,-1.3827376499999997,0.7158854499999999,9.67916355,-0.6586,-0.0771,0.019,-0.7483,4.235285636782925,-8.071841536903616,96.99790875462816,31.2
76260942527841,9.98791,58301.0,10.0,-0.14041466,-0.07312072,-0.98738918,1.0000001546086412,0.0,0.0,0.0,-1.3729310000000001,0.7158854499999999,9.67916355,-0.6586,-0.0771,0.019,-0.7483,4.235285636782925,-8.071841536903616,96.99790875462816,31.2
76260952421642,9.893801,58311.0,10.0,-0.14041466,-0.07312072,-0.98738918,1.0000001546086412,0.0,0.0,0.0,-1.3827376499999997,0.7158854499999999,9.669356899999999,-0.6586,-0.0771,0.019,-0.7483,4.235285636782925,-8.071841536903616,96.99790875462816,31.2
76260962442387,10.020745,58321.0,10.0,-0.14041466,-0.07312072,-0.98738918,1.0000001546086412,0.0,0.0,0.0,-1.3729310000000001,0.7158854499999999,9.6889702,-0.6586,-0.0771,0.019,-0.7483,4.235285636782925,-8.071841536903616,96.99790875462816,31.2
76260972483374,10.040987,58331.0,10.0,-0.14041466,-0.07312072,-0.98738918,1.0000001546086412,0.0,0.0,0.0,-1.36312435,0.7256921,9.669356899999999,-0.6586,-0.0771,0.019,-0.7483,4.235285636782925,-8.071841536903616,96.99790875462816,31.2
76260982334343,9.850969,58341.0,10.0,-0.14041466,-0.07312072,-0.98738918,1.0000001546086412,0.0,0.0,0.0,-1.3827376499999997,0.7060787999999999,9.6889702,-0.6586,-0.0771,0.019,-0.7483,4.235285636782925,-8.071841536903616,96.99790875462816,31.2
76260992394545,10.060202,58351.0,10.0,-0.14041466,-0.07312072,-0.98738918,1.0000001546086412,0.0,0.0,0.0,-1.3729310000000001,0.7158854499999999,9.6889702,-0.6586,-0.0771,0.019,-0.7483,4.235285636782925,-8.071841536903616,96.99790875462816,31.2
76261002342299,9.947754,58361.0,10.0,-0.14041466,-0.07312072,-0.98738918,1.0000001546086412,0.0,0.0,0.0,-1.3827376499999997,0.7158854499999999,9.67916355,-0.6586,-0.0771,0.019,-0.7483,4.235285636782925,-8.071841536903616,96.99790875462816,31.2
76261012339454,9.997155,58371.0,10.0,-0.14041466,-0.07312072,-0.98738918,1.0000001546086412,0.0,0.0,0.0,-1.3827376499999997,0.7158854499999999,9.69877685,-0.6586,-0.0771,0.019,-0.7483,4.235285636782925,-8.071841536903616,96.99790875462816,31.2
76261022307264,9.96781,58381.0,10.0,-0.14041466,-0.07312072,-0.98738918,1.0000001546086412,0.0,0.0,0.0,-1.3729310000000001,0.7256921,9.67916355,-0.6586,-0.0771,0.019,-0.7483,4.235285636782925,-8.071841536903616,96.99790875462816,31.2
76261032510001,10.202737,58391.0,10.0,-0.14041466,-0.07312072,-0.98738918,1.0000001546086412,0.0,0.0,0.0,-1.3729310000000001,0.7060787999999999,9.67916355,-0.6586,-0.0771,0.019,-0.7483,4.235285636782925,-8.071841536903616,96.99790875462816,31.2
76261042396855,9.886854,58401.0,10.0,-0.14041466,-0.07312072,-0.98738918,1.0000001546086412,0.0,0.0,0.0,-1.3827376499999997,0.7256921,9.67916355,-0.6586,-0.0771,0.019,-0.7483,4.235285636782925,-8.071841536903616,96.99790875462816,31.2
76261062469023,20.072168,58421.0,20.0,-0.14041466,-0.07312072,-0.98738918,1.0000001546086412,0.0,0.0,0.0,-1.3729310000000001,0.7060787999999999,9.6889702,-0.6586,-0.0771,0.019,-0.7483,4.235285636782925,-8.071841536903616,96.99790875462816,31.2
76261072432643,9.96362,58431.0,10.0,-0.14041466,-0.07312072,-0.98738918,1.0000001546086412,0.0,0.0,0.0,-1.36312435,0.7158854499999999,9.6889702,-0.6586,-0.0771,0.019,-0.7483,4.235285636782925,-8.071841536903616,96.99790875462816,31.2
76261082414615,9.981972,58441.0,10.0,-0.14041466,-0.07312072,-0.98738918,1.0000001546086412,0.0,0.0,0.0,-1.3925442999999997,0.7060787999999999,9.669356899999999,-0.6586,-0.0771,0.019,-0.7483,4.235285636782925,-8.071841536903616,96.99790875462816,31.2
76261092409385,9.99477,58451.0,10.0,-0.14041466,-0.07312072,-0.98738918,1.0000001546086412,0.0,0.0,0.0,-1.3827376499999997,0.7158854499999999,9.67916355,-0.6586,-0.0771,0.019,-0.7483,4.235285636782925,-8.071841536903616,96.99790875462816,31.2
76261102329582,9.920197,58461.0,10.0,-0.14041466,-0.07312072,-0.98738918,1.0000001546086412,0.0,0.0,0.0,-1.3729310000000001,0.7158854499999999,9.67916355,-0.6586,-0.0771,0.019,-0.7483,4.235285636782925,-8.071841536903616,96.99790875462816,31.2
76261112375707,10.046125,58471.0,10.0,-0.14041466,-0.07312072,-0.98738918,1.0000001546086412,0.0,0.0,0.0,-1.3925442999999997,0.7256921,9.6889702,-0.6586,-0.0771,0.019,-0.7483,4.235285636782925,-8.071841536903616,96.99790875462816,31.2
76261122242117,9.86641,58481.0,10.0,-0.14041466,-0.07312072,-0.98738918,1.0000001546086412,0.0,0.0,0.0,-1.3729310000000001,0.7060787999999999,9.67916355,-0.6586,-0.0771,0.019,-0.7483,4.235285636782925,-8.071841536903616,96.99790875462816,31.2
76261132351090,10.108973,58491.0,10.0,-0.14041466,-0.07312072,-0.98738918,1.0000001546086412,0.0,0.0,0.0,-1.3827376499999997,0.7158854499999999,9.6889702,-0.6586,-0.0771,0.019,-0.7483,4.235285636782925,-8.071841536903616,96.99790875462816,31.2
76261142410534,10.059444,58501.0,10.0,-0.14041466,-0.07312072,-0.98738918,1.0000001546086412,0.0,0.0,0.0,-1.3729310000000001,0.7060787999999999,9.6889702,-0.6586,-0.0771,0.019,-0.7483,4.235285636782925,-8.071841536903616,96.99790875462816,31.2
76261152410419,9.999885,58511.0,10.0,-0.14041466,-0.07312072,-0.98738918,1.0000001546086412,0.0,0.0,0.0,-1.3827376499999997,0.7256921,9.6889702,-0.6586,-0.0771,0.019,-0.7483,4.235285636782925,-8.071841536903616,96.99790875462816,31.2
76261162414782,10.004363,58521.0,10.0,-0.14041466,-0.07312072,-0.98738918,1.0000001546086412,0.0,0.0,0.0,-1.3729310000000001,0.7158854499999999,9.67916355,-0.6586,-0.0771,0.019,-0.7483,4.235285636782925,-8.071841536903616,96.99790875462816,31.2
76261212458628,50.043846,58571.0,50.0,-0.14041466,-0.07312072,-0.98738918,1.0000001546086412,0.0,0.0,0.0,-1.3827376499999997,0.7158854499999999,9.67916355,-0.6586,-0.0771,0.019,-0.7483,4.235285636782925,-8.071841536903616,96.99790875462816,31.2
76261222579586,10.120958,58581.0,10.0,-0.14041466,-0.07312072,-0.98738918,1.0000001546086412,0.0,0.0,0.0,-1.3729310000000001,0.7158854499999999,9.6889702,-0.6586,-0.0771,0.019,-0.7483,4.235285636782925,-8.071841536903616,96.99790875462816,31.2
76261232422651,9.843065,58591.0,10.0,-0.14041466,-0.07312072,-0.98738918,1.0000001546086412,0.0,0.0,0.0,-1.3729310000000001,0.7060787999999999,9.67916355,-0.6586,-0.0771,0.019,-0.7483,4.235285636782925,-8.071841536903616,96.99790875462816,31.2
76261242420355,9.997704,58601.0,10.0,-0.14041466,-0.07312072,-0.98738918,1.0000001546086412,0.0,0.0,0.0,-1.3729310000000001,0.7060787999999999,9.67916355,-0.6586,-0.0771,0.019,-0.7483,4.235285636782925,-8.071841536903616,96.99790875462816,31.2
76261252406862,9.986507,58611.0,10.0,-0.14041466,-0.07312072,-0.98738918,1.0000001546086412,0.0,0.0,0.0,-1.3827376499999997,0.7256921,9.67916355,-0.6586,-0.0771,0.019,-0.7483,4.235285636782925,-8.071841536903616,96.99790875462816,31.2
76261262390048,9.983186,58621.0,10.0,-0.14041466,-0.07312072,-0.98738918,1.0000001546086412,0.0,0.0,0.0,-1.3827376499999997,0.7158854499999999,9.67916355,-0.6586,-0.0771,0.019,-0.7483,4.235285636782925,-8.071841536903616,96.99790875462816,31.2
76261272456480,10.066432,58631.0,10.0,-0.14041466,-0.07312072,-0.98738918,1.0000001546086412,0.0,0.0,0.0,-1.3729310000000001,0.7158854499999999,9.669356899999999,-0.6586,-0.0771,0.019,-0.7483,4.235285636782925,-8.071841536903616,96.99790875462816,31.2
76261282501022,10.044542,58641.0,10.0,-0.14041466,-0.07312072,-0.98738918,1.0000001546086412,0.0,0.0,0.0,-1.3729310000000001,0.7158854499999999,9.67916355,-0.6586,-0.0771,0.019,-0.7483,4.235285636782925,-8.071841536903616,96.99790875462816,31.2
76261292475093,9.974071,58651.0,10.0,-0.14041466,-0.07312072,-0.98738918,1.0000001546086412,0.0,0.0,0.0,-1.3729310000000001,0.7158854499999999,9.67916355,-0.6586,-0.0771,0.019,-0.7483,4.235285636782925,-8.071841536903616,96.99790875462816,31.2
76261302387064,9.911971,58661.0,10.0,-0.14041466,-0.07312072,-0.98738918,1.0000001546086412,0.0,0.0,0.0,-1.3827376499999997,0.7158854499999999,9.67916355,-0.6586,-0.0771,0.019,-0.7483,4.235285636782925,-8.071841536903616,96.99790875462816,31.2
76261312584295,10.197231,58671.0,10.0,-0.14041466,-0.07312072,-0.98738918,1.0000001546086412,0.0,0.0,0.0,-1.3729310000000001,0.7158854499999999,9.67916355,-0.6586,-0.0771,0.019,-0.7483,4.235285636782925,-8.071841536903616,96.99790875462816,31.2
76261322523654,9.939359,58681.0,10.0,-0.14041466,-0.07312072,-0.98738918,1.0000001546086412,0.0,0.0,0.0,-1.3729310000000001,0.7158854499999999,9.669356899999999,-0.6586,-0.0771,0.019,-0.7483,4.235285636782925,-8.071841536903616,96.99790875462816,31.2
76261412581050,90.057396,58771.0,90.0,-0.14041466,-0.07312072,-0.98738918,1.0000001546086412,0.0,0.0,0.0,-1.3729310000000001,0.7060787999999999,9.6889702,-0.6586,-0.0771,0.019,-0.7483,4.235285636782925,-8.071841536903616,96.99790875462816,31.2
76261422461997,9.880947,58781.0,10.0,-0.14041466,-0.07312072,-0.98738918,1.0000001546086412,0.0,0.0,0.0,-1.3729310000000001,0.7158854499999999,9.6889702,-0.6586,-0.0771,0.019,-0.7483,4.235285636782925,-8.071841536903616,96.99790875462816,31.2
76261442557445,20.095448,58801.0,20.0,-0.14041466,-0.07312072,-0.98738918,1.0000001546086412,0.0,0.0,0.0,-1.3827376499999997,0.7060787999999999,9.669356899999999,-0.6586,-0.0771,0.019,-0.7483,4.235285636782925,-8.071841536903616,96.99790875462816,31.2
76261452456132,9.898687,58811.0,10.0,-0.14041466,-0.07312072,-0.98738918,1.0000001546086412,0.0,0.0,0.0,-1.3729310000000001,0.7256921,9.67916355,-0.6586,-0.0771,0.019,-0.7483,4.235285636782925,-8.071841536903616,96.99790875462816,31.2
76261462457097,10.000965,58821.0,10.0,-0.14041466,-0.07312072,-0.98738918,1.0000001546086412,0.0,0.0,0.0,-1.3827376499999997,0.7158854499999999,9.669356899999999,-0.6586,-0.0771,0.019,-0.7483,4.235285636782925,-8.071841536903616,96.99790875462816,31.2
76261472420988,9.963891,58831.0,10.0,-0.14041466,-0.07312072,-0.98738918,1.0000001546086412,0.0,0.0,0.0,-1.3925442999999997,0.7158854499999999,9.67916355,-0.6586,-0.0771,0.019,-0.7483,4.235285636782925,-8.071841536903616,96.99790875462816,31.2
76261482312240,9.891252,58841.0,10.0,-0.14041466,-0.07312072,-0.98738918,1.0000001546086412,0.0,0.0,0.0,-1.3827376499999997,0.7158854499999999,9.67916355,-0.6586,-0.0771,0.019,-0.7483,4.235285636782925,-8.071841536903616,96.99790875462816,31.2
76261492460091,10.147851,58851.0,10.0,-0.14041466,-0.07312072,-0.98738918,1.0000001546086412,0.0,0.0,0.0,-1.3729310000000001,0.7158854499999999,9.67916355,-0.6586,-0.0771,0.019,-0.7483,4.235285636782925,-8.071841536903616,96.99790875462816,31.2
76261502425283,9.965192,58861.0,10.0,-0.14041466,-0.07312072,-0.98738918,1.0000001546086412,0.0,0.0,0.0,-1.3729310000000001,0.7060787999999999,9.6889702,-0.6586,-0.0771,0.019,-0.7483,4.235285636782925,-8.071841536903616,96.99790875462816,31.2
76261512413376,9.988093,58871.0,10.0,-0.14041466,-0.07312072,-0.98738918,1.0000001546086412,0.0,0.0,0.0,-1.3827376499999997,0.7256921,9.67916355,-0.6586,-0.0771,0.019,-0.7483,4.235285636782925,-8.071841536903616,96.99790875462816,31.2
76261522466212,10.052836,58881.0,10.0,-0.14041466,-0.07312072,-0.98738918,1.0000001546086412,0.0,0.0,0.0,-1.3827376499999997,0.7158854499999999,9.67916355,-0.6586,-0.0771,0.019,-0.7483,4.235285636782925,-8.071841536903616,96.99790875462816,31.2
76261532442545,9.976333,58891.0,10.0,-0.14041466,-0.07312072,-0.98738918,1.0000001546086412,0.0,0.0,0.0,-1.36312435,0.7060787999999999,9.669356899999999,-0.6586,-0.0771,0.019,-0.7483,4.235285636782925,-8.071841536903616,96.99790875462816,31.2
76261542415784,9.973239,58901.0,10.0,-0.14041466,-0.07312072,-0.98738918,1.0000001546086412,0.0,0.0,0.0,-1.36312435,0.7158854499999999,9.669356899999999,-0.6586,-0.0771,0.019,-0.7483,4.235285636782925,-8.071841536903616,96.99790875462816,31.2
76261552413758,9.997974,58911.0,10.0,-0.14041466,-0.07312072,-0.98738918,1.0000001546086412,0.0,0.0,0.0,-1.3729310000000001,0.7158854499999999,9.6889702,-0.6586,-0.0771,0.019,-0.7483,4.235285636782925,-8.071841536903616,96.99790875462816,31.2
76261562477388,10.06363,58921.0,10.0,-0.14041466,-0.07312072,-0.98738918,1.0000001546086412,0.0,0.0,0.0,-1.3827376499999997,0.7256921,9.67916355,-0.6586,-0.0771,0.019,-0.7483,4.235285636782925,-8.071841536903616,96.99790875462816,31.2
76261572410073,9.932685,58931.0,10.0,-0.14041466,-0.07312072,-0.98738918,1.0000001546086412,0.0,0.0,0.0,-1.3827376499999997,0.7060787999999999,9.67916355,-0.6586,-0.0771,0.019,-0.7483,4.235285636782925,-8.071841536903616,96.99790875462816,31.2
76261582489731,10.079658,58941.0,10.0,-0.14041466,-0.07312072,-0.98738918,1.0000001546086412,0.0,0.0,0.0,-1.3827376499999997,0.7256921,9.6889702,-0.6586,-0.0771,0.019,-0.7483,4.235285636782925,-8.071841536903616,96.99790875462816,31.2
76261592420443,9.930712,58951.0,10.0,-0.14041466,-0.07312072,-0.98738918,1.0000001546086412,0.0,0.0,0.0,-1.3729310000000001,0.7158854499999999,9.67916355,-0.6586,-0.0771,0.019,-0.7483,4.235285636782925,-8.071841536903616,96.99790875462816,31.2
76261602368664,9.948221,58961.0,10.0,-0.14041466,-0.07312072,-0.98738918,1.0000001546086412,0.0,0.0,0.0,-1.3729310000000001,0.7060787999999999,9.6889702,-0.6586,-0.0771,0.019,-0.7483,4.235285636782925,-8.071841536903616,96.99790875462816,31.2
76261612460205,10.091541,58971.0,10.0,-0.14041466,-0.07312072,-0.98738918,1.0000001546086412,0.0,0.0,0.0,-1.3729310000000001,0.7158854499999999,9.67916355,-0.6586,-0.0771,0.019,-0.7483,4.235285636782925,-8.071841536903616,96.99790875462816,31.2
76261622351187,9.890982,58981.0,10.0,-0.14041466,-0.07312072,-0.98738918,1.0000001546086412,0.0,0.0,0.0,-1.3827376499999997,0.7256921,9.6889702,-0.6586,-0.0771,0.019,-0.7483,4.235285636782925,-8.071841536903616,96.99790875462816,31.2
76261632432550,10.081363,58991.0,10.0,-0.14041466,-0.07312072,-0.98738918,1.0000001546086412,0.0,0.0,0.0,-1.3729310000000001,0.7158854499999999,9.67916355,-0.6586,-0.0771,0.019,-0.7483,4.235285636782925,-8.071841536903616,96.99790875462816,31.2
76261642455365,10.022815,59001.0,10.0,-0.14041466,-0.07312072,-0.98738918,1.0000001546086412,0.0,0.0,0.0,-1.3827376499999997,0.7256921,9.67916355,-0.6586,-0.0771,0.019,-0.7483,4.235285636782925,-8.071841536903616,96.99790875462816,31.2
76261652438627,9.983262,59011.0,10.0,-0.14041466,-0.07312072,-0.98738918,1.0000001546086412,0.0,0.0,0.0,-1.3925442999999997,0.7158854499999999,9.67916355,-0.6586,-0.0771,0.019,-0.7483,4.235285636782925,-8.071841536903616,96.99790875462816,31.2
76261662422756,9.984129,59021.0,10.0,-0.14041466,-0.07312072,-0.98738918,1.0000001546086412,0.0,0.0,0.0,-1.3827376499999997,0.7256921,9.6889702,-0.6586,-0.0771,0.019,-0.7483,4.235285636782925,-8.071841536903616,96.99790875462816,31.2
76261672426106,10.00335,59031.0,10.0,-0.14041466,-0.07312072,-0.98738918,1.0000001546086412,0.0,0.0,0.0,-1.3827376499999997,0.7256921,9.67916355,-0.6586,-0.0771,0.019,-0.7483,4.235285636782925,-8.071841536903616,96.99790875462816,31.2
76261682413938,9.987832,59041.0,10.0,-0.14041466,-0.07312072,-0.98738918,1.0000001546086412,0.0,0.0,0.0,-1.3729310000000001,0.7158854499999999,9.67916355,-0.6586,-0.0771,0.019,-0.7483,4.235285636782925,-8.071841536903616,96.99790875462816,31.2
76261692368013,9.954075,59051.0,10.0,-0.14041466,-0.07312072,-0.98738918,1.0000001546086412,0.0,0.0,0.0,-1.3729310000000001,0.7060787999999999,9.6889702,-0.6586,-0.0771,0.019,-0.7483,4.235285636782925,-8.071841536903616,96.99790875462816,31.2
76261702382635,10.014622,59061.0,10.0,-0.14041466,-0.07312072,-0.98738918,1.0000001546086412,0.0,0.0,0.0,-1.3827376499999997,0.7158854499999999,9.67916355,-0.6586,-0.0771,0.019,-0.7483,4.235285636782925,-8.071841536903616,96.99790875462816,31.2
76261722342001,19.959366,59081.0,20.0,-0.14041466,-0.07312072,-0.98738918,1.0000001546086412,0.0,0.0,0.0,-1.3827376499999997,0.6962721499999999,9.67916355,-0.6586,-0.0771,0.019,-0.7483,4.235285636782925,-8.071841536903616,96.99790875462816,31.2
76261762334227,39.992226,59121.0,40.0,-0.14041466,-0.07312072,-0.98738918,1.0000001546086412,0.0,0.0,0.0,-1.3827376499999997,0.7158854499999999,9.67916355,-0.6586,-0.0771,0.019,-0.7483,4.235285636782925,-8.071841536903616,96.99790875462816,31.2
76261772391775,10.057548,59131.0,10.0,-0.14041466,-0.07312072,-0.98738918,1.0000001546086412,0.0,0.0,0.0,-1.3827376499999997,0.7158854499999999,9.6889702,-0.6586,-0.0771,0.019,-0.7483,4.235285636782925,-8.071841536903616,96.99790875462816,31.2
76261782370434,9.978659,59141.0,10.0,-0.14041466,-0.07312072,-0.98738918,1.0000001546086412,0.0,0.0,0.0,-1.3729310000000001,0.7256921,9.67916355,-0.6586,-0.0771,0.019,-0.7483,4.235285636782925,-8.071841536903616,96.99790875462816,31.2
76261792353027,9.982593,59151.0,10.0,-0.14041466,-0.07312072,-0.98738918,1.0000001546086412,0.0,0.0,0.0,-1.3729310000000001,0.7256921,9.67916355,-0.6586,-0.0771,0.019,-0.7483,4.235285636782925,-8.071841536903616,96.99790875462816,31.2
76261802339002,9.985975,59161.0,10.0,-0.14041466,-0.07312072,-0.98738918,1.0000001546086412,0.0,0.0,0.0,-1.3827376499999997,0.7158854499999999,9.669356899999999,-0.6586,-0.0771,0.019,-0.7483,4.235285636782925,-8.071841536903616,96.99790875462816,31.2
76261812310284,9.971282,59171.0,10.0,-0.14041466,-0.07312072,-0.98738918,1.0000001546086412,0.0,0.0,0.0,-1.3827376499999997,0.7158854499999999,9.69877685,-0.6586,-0.0771,0.019,-0.7483,4.235285636782925,-8.071841536903616,96.99790875462816,31.2
76261822313574,10.00329,59181.0,10.0,-0.14041466,-0.07312072,-0.98738918,1.0000001546086412,0.0,0.0,0.0,-1.3925442999999997,0.7158854499999999,9.6889702,-0.6586,-0.0771,0.019,-0.7483,4.235285636782925,-8.071841536903616,96.99790875462816,31.2
76261852409643,30.096069,59211.0,30.0,-0.14041466,-0.07312072,-0.98738918,1.0000001546086412,0.0,0.0,0.0,-1.3729310000000001,0.7256921,9.67916355,-0.6586,-0.0771,0.019,-0.7483,4.235285636782925,-8.071841536903616,96.99790875462816,31.2
76261862346872,9.937229,59221.0,10.0,-0.14041466,-0.07312072,-0.98738918,1.0000001546086412,0.0,0.0,0.0,-1.3729310000000001,0.7060787999999999,9.67916355,-0.6586,-0.0771,0.019,-0.7483,4.235285636782925,-8.071841536903616,96.99790875462816,31.2
76261872259206,9.912334,59231.0,10.0,-0.14041466,-0.07312072,-0.98738918,1.0000001546086412,0.0,0.0,0.0,-1.3729310000000001,0.7158854499999999,9.67916355,-0.6586,-0.0771,0.019,-0.7483,4.235285636782925,-8.071841536903616,96.99790875462816,31.2
76261882366808,10.107602,59241.0,10.0,-0.14041466,-0.07312072,-0.98738918,1.0000001546086412,0.0,0.0,0.0,-1.3827376499999997,0.7256921,9.6889702,-0.6586,-0.0771,0.019,-0.7483,4.235285636782925,-8.071841536903616,96.99790875462816,31.2
76261892350187,9.983379,59251.0,10.0,-0.14041466,-0.07312072,-0.98738918,1.0000001546086412,0.0,0.0,0.0,-1.3729310000000001,0.7158854499999999,9.6889702,-0.6586,-0.0771,0.019,-0.7483,4.235285636782925,-8.071841536903616,96.99790875462816,31.2
76261902335049,9.984862,59261.0,10.0,-0.14041466,-0.07312072,-0.98738918,1.0000001546086412,0.0,0.0,0.0,-1.36312435,0.7158854499999999,9.67916355,-0.6586,-0.0771,0.019,-0.7483,4.235285636782925,-8.071841536903616,96.99790875462816,31.2
76261912308801,9.973752,59271.0,10.0,-0.14041466,-0.07312072,-0.98738918,1.0000001546086412,0.0,0.0,0.0,-1.3729310000000001,0.7158854499999999,9.67916355,-0.6586,-0.0771,0.019,-0.7483,4.235285636782925,-8.071841536903616,96.99790875462816,31.2
76261922323368,10.014567,59281.0,10.0,-0.14041466,-0.07312072,-0.98738918,1.0000001546086412,0.0,0.0,0.0,-1.3729310000000001,0.7158854499999999,9.67916355,-0.6586,-0.0771,0.019,-0.7483,4.235285636782925,-8.071841536903616,96.99790875462816,31.2
76261932391148,10.06778,59291.0,10.0,-0.14041466,-0.07312072,-0.98738918,1.0000001546086412,0.0,0.0,0.0,-1.3827376499999997,0.7060787999999999,9.6889702,-0.6586,-0.0771,0.019,-0.7483,4.235285636782925,-8.071841536903616,96.99790875462816,31.2
76261942319468,9.92832,59301.0,10.0,-0.14041466,-0.07312072,-0.98738918,1.0000001546086412,0.0,0.0,0.0,-1.3827376499999997,0.7158854499999999,9.67916355,-0.6586,-0.0771,0.019,-0.7483,4.235285636782925,-8.071841536903616,96.99790875462816,31.2
76261952376134,10.056666,59311.0,10.0,-0.14041466,-0.07312072,-0.98738918,1.0000001546086412,0.0,0.0,0.0,-1.3827376499999997,0.7256921,9.67916355,-0.6586,-0.0771,0.019,-0.7483,4.235285636782925,-8.071841536903616,96.99790875462816,31.2
76261962383751,10.007617,59321.0,10.0,-0.14041466,-0.07312072,-0.98738918,1.0000001546086412,0.0,0.0,0.0,-1.3925442999999997,0.7060787999999999,9.67916355,-0.6586,-0.0771,0.019,-0.7483,4.235285636782925,-8.071841536903616,96.99790875462816,31.2
76261982287941,19.90419,59341.0,20.0,-0.14041466,-0.07312072,-0.98738918,1.0000001546086412,0.0,0.0,0.0,-1.3827376499999997,0.7158854499999999,9.6889702,-0.6586,-0.0771,0.019,-0.7483,4.235285636782925,-8.071841536903616,96.99790875462816,31.2
76261992315106,10.027165,59351.0,10.0,-0.14041466,-0.07312072,-0.98738918,1.0000001546086412,0.0,0.0,0.0,-1.3729310000000001,0.7256921,9.669356899999999,-0.6586,-0.0771,0.019,-0.7483,4.235285636782925,-8.071841536903616,96.99790875462816,31.2
76262002311209,9.996103,59361.0,10.0,-0.14041466,-0.07312072,-0.98738918,1.0000001546086412,0.0,0.0,0.0,-1.3729310000000001,0.7256921,9.669356899999999,-0.6586,-0.0771,0.019,-0.7483,4.235285636782925,-8.071841536903616,96.99790875462816,31.2
76262012454930,10.143721,59371.0,10.0,-0.14041466,-0.07312072,-0.98738918,1.0000001546086412,0.0,0.0,0.0,-1.3827376499999997,0.7158854499999999,9.6889702,-0.6586,-0.0771,0.019,-0.7483,4.235285636782925,-8.071841536903616,96.99790875462816,31.2
76262022425345,9.970415,59381.0,10.0,-0.14041466,-0.07312072,-0.98738918,1.0000001546086412,0.0,0.0,0.0,-1.3827376499999997,0.7060787999999999,9.669356899999999,-0.6586,-0.0771,0.019,-0.7483,4.235285636782925,-8.071841536903616,96.99790875462816,31.2
76262032499500,10.074155,59391.0,10.0,-0.14041466,-0.07312072,-0.98738918,1.0000001546086412,0.0,0.0,0.0,-1.36312435,0.7158854499999999,9.67916355,-0.6586,-0.0771,0.019,-0.7483,4.235285636782925,-8.071841536903616,96.99790875462816,31.2
76262042603815,10.104315,59401.0,10.0,-0.14041466,-0.07312072,-0.98738918,1.0000001546086412,0.0,0.0,0.0,-1.3729310000000001,0.7158854499999999,9.669356899999999,-0.6586,-0.0771,0.019,-0.7483,4.235285636782925,-8.071841536903616,96.99790875462816,31.2
76262052528660,9.924845,59411.0,10.0,-0.14041466,-0.07312072,-0.98738918,1.0000001546086412,0.0,0.0,0.0,-1.3827376499999997,0.7060787999999999,9.67916355,-0.6586,-0.0771,0.019,-0.7483,4.235285636782925,-8.071841536903616,96.99790875462816,31.2
76262062553965,10.025305,59421.0,10.0,-0.14041466,-0.07312072,-0.98738918,1.0000001546086412,0.0,0.0,0.0,-1.3729310000000001,0.7158854499999999,9.669356899999999,-0.6586,-0.0771,0.019,-0.7483,4.235285636782925,-8.071841536903616,96.99790875462816,31.2
76262072581779,10.027814,59431.0,10.0,-0.14041466,-0.07312072,-0.98738918,1.0000001546086412,0.0,0.0,0.0,-1.3827376499999997,0.7256921,9.67916355,-0.6586,-0.0771,0.019,-0.7483,4.235285636782925,-8.071841536903616,96.99790875462816,31.2
76262082545944,9.964165,59441.0,10.0,-0.14041466,-0.07312072,-0.98738918,1.0000001546086412,0.0,0.0,0.0,-1.36312435,0.7158854499999999,9.67916355,-0.6586,-0.0771,0.019,-0.7483,4.235285636782925,-8.071841536903616,96.99790875462816,31.2
76262092593048,10.047104,59451.0,10.0,-0.14041466,-0.07312072,-0.98738918,1.0000001546086412,0.0,0.0,0.0,-1.3729310000000001,0.7158854499999999,9.67916355,-0.6586,-0.0771,0.019,-0.7483,4.235285636782925,-8.071841536903616,96.99790875462816,31.2
76262102660214,10.067166,59461.0,10.0,-0.14041466,-0.07312072,-0.98738918,1.0000001546086412,0.0,0.0,0.0,-1.3925442999999997,0.7158854499999999,9.6889702,-0.6586,-0.0771,0.019,-0.7483,4.235285636782925,-8.071841536903616,96.99790875462816,31.2
76262982251118,879.590904,341.0,,-0.14041466,-0.07312072,-0.98738918,1.0000001546086412,0.0,0.0,0.0,-1.3827376499999997,0.7060787999999999,9.67916355,-0.6586,-0.0771,0.019,-0.7483,4.235285636782925,-8.071841536903616,96.99790875462816,31.2
76263362454567,380.203449,721.0,380.0,-0.14041466,-0.07312072,-0.98738918,1.0000001546086412,0.0,0.0,0.0,-1.3827376499999997,0.7158854499999999,9.67916355,-0.6586,-0.0771,0.019,-0.7483,4.235285636782925,-8.071841536903616,96.99790875462816,31.2
76263372307005,9.852438,731.0,10.0,-0.14041466,-0.07312072,-0.98738918,1.0000001546086412,0.0,0.0,0.0,-1.36312435,0.7060787999999999,9.67916355,-0.6586,-0.0771,0.019,-0.7483,4.235285636782925,-8.071841536903616,96.99790875462816,31.2
76263382421305,10.1143,741.0,10.0,-0.14041466,-0.07312072,-0.98738918,1.0000001546086412,0.0,0.0,0.0,-1.3827376499999997,0.7158854499999999,9.6889702,-0.6586,-0.0771,0.019,-0.7483,4.235285636782925,-8.071841536903616,96.99790875462816,31.2
76263392243662,9.822357,751.0,10.0,-0.14041466,-0.07312072,-0.98738918,1.0000001546086412,0.0,0.0,0.0,-1.3729310000000001,0.7158854499999999,9.67916355,-0.6586,-0.0771,0.019,-0.7483,4.235285636782925,-8.071841536903616,96.99790875462816,31.2
76263402476164,10.232502,761.0,10.0,-0.14041466,-0.07312072,-0.98738918,1.0000001546086412,0.0,0.0,0.0,-1.3729310000000001,0.7256921,9.67916355,-0.6586,-0.0771,0.019,-0.7483,4.235285636782925,-8.071841536903616,96.99790875462816,31.2
76263412472486,9.996322,771.0,10.0,-0.14041466,-0.07312072,-0.98738918,1.0000001546086412,0.0,0.0,0.0,-1.36312435,0.7060787999999999,9.6889702,-0.6586,-0.0771,0.019,-0.7483,4.235285636782925,-8.071841536903616,96.99790875462816,31.2
76263422272819,9.800333,781.0,10.0,-0.14041466,-0.07312072,-0.98738918,1.0000001546086412,0.0,0.0,0.0,-1.3729310000000001,0.7158854499999999,9.6889702,-0.6586,-0.0771,0.019,-0.7483,4.235285636782925,-8.071841536903616,96.99790875462816,31.2
76263432434710,10.161891,791.0,10.0,-0.14041466,-0.07312072,-0.98738918,1.0000001546086412,0.0,0.0,0.0,-1.3729310000000001,0.7256921,9.67916355,-0.6586,-0.0771,0.019,-0.7483,4.235285636782925,-8.071841536903616,96.99790875462816,31.2
76263442397930,9.96322,801.0,10.0,-0.14041466,-0.07312072,-0.98738918,1.0000001546086412,0.0,0.0,0.0,-1.36312435,0.7158854499999999,9.6889702,-0.6586,-0.0771,0.019,-0.7483,4.235285636782925,-8.071841536903616,96.99790875462816,31.2
76263452265485,9.867555,811.0,10.0,-0.14041466,-0.07312072,-0.98738918,1.0000001546086412,0.0,0.0,0.0,-1.3729310000000001,0.7060787999999999,9.6889702,-0.6586,-0.0771,0.019,-0.7483,4.235285636782925,-8.071841536903616,96.99790875462816,31.2
76263462387814,10.122329,821.0,10.0,-0.14041466,-0.07312072,-0.98738918,1.0000001546086412,0.0,0.0,0.0,-1.3729310000000001,0.7060787999999999,9.67916355,-0.6586,-0.0771,0.019,-0.7483,4.235285636782925,-8.071841536903616,96.99790875462816,31.2
76263472262643,9.874829,831.0,10.0,-0.14041466,-0.07312072,-0.98738918,1.0000001546086412,0.0,0.0,0.0,-1.3729310000000001,0.7158854499999999,9.6889702,-0.6586,-0.0771,0.019,-0.7483,4.235285636782925,-8.071841536903616,96.99790875462816,31.2
76263482141778,9.879135,841.0,10.0,-0.14041466,-0.07312072,-0.98738918,1.0000001546086412,0.0,0.0,0.0,-1.3827376499999997,0.7158854499999999,9.6889702,-0.6586,-0.0771,0.019,-0.7483,4.235285636782925,-8.071841536903616,96.99790875462816,31.2
76263492407934,10.266156,851.0,10.0,-0.14041466,-0.07312072,-0.98738918,1.0000001546086412,0.0,0.0,0.0,-1.3729310000000001,0.7158854499999999,9.67916355,-0.6586,-0.0771,0.019,-0.7483,4.235285636782925,-8.071841536903616,96.99790875462816,31.2
76263502384827,9.976893,861.0,10.0,-0.14041466,-0.07312072,-0.98738918,1.0000001546086412,0.0,0.0,0.0,-1.36312435,0.7256921,9.67916355,-0.6586,-0.0771,0.019,-0.7483,4.235285636782925,-8.071841536903616,96.99790875462816,31.2
76263512233741,9.848914,871.0,10.0,-0.14041466,-0.07312072,-0.98738918,1.0000001546086412,0.0,0.0,0.0,-1.3729310000000001,0.7158854499999999,9.6889702,-0.6586,-0.0771,0.019,-0.7483,4.235285636782925,-8.071841536903616,96.99790875462816,31.2
76263522179955,9.946214,881.0,10.0,-0.14041466,-0.07312072,-0.98738918,1.0000001546086412,0.0,0.0,0.0,-1.3729310000000001,0.7158854499999999,9.67916355,-0.6586,-0.0771,0.019,-0.7483,4.235285636782925,-8.071841536903616,96.99790875462816,31.2
76263562456815,40.27686,921.0,40.0,-0.14041466,-0.07312072,-0.98738918,1.0000001546086412,0.0,0.0,0.0,-1.3729310000000001,0.7158854499999999,9.67916355,-0.6586,-0.0771,0.019,-0.7483,4.235285636782925,-8.071841536903616,96.99790875462816,31.2
76263582438838,19.982023,941.0,20.0,-0.14041466,-0.07312072,-0.98738918,1.0000001546086412,0.0,0.0,0.0,-1.3827376499999997,0.7158854499999999,9.6889702,-0.6586,-0.0771,0.019,-0.7483,4.235285636782925,-8.071841536903616,96.99790875462816,31.2
76263592424549,9.985711,951.0,10.0,-0.14041466,-0.07312072,-0.98738918,1.0000001546086412,0.0,0.0,0.0,-1.3925442999999997,0.7158854499999999,9.6889702,-0.6586,-0.0771,0.019,-0.7483,4.235285636782925,-8.071841536903616,96.99790875462816,31.2
76263602496120,10.071571,961.0,10.0,-0.14041466,-0.07312072,-0.98738918,1.0000001546086412,0.0,0.0,0.0,-1.3827376499999997,0.7158854499999999,9.67916355,-0.6586,-0.0771,0.019,-0.7483,4.235285636782925,-8.071841536903616,96.99790875462816,31.2
76263612532413,10.036293,971.0,10.0,-0.14041466,-0.07312072,-0.98738918,1.0000001546086412,0.0,0.0,0.0,-1.3729310000000001,0.7256921,9.6889702,-0.6586,-0.0771,0.019,-0.7483,4.235285636782925,-8.071841536903616,96.99790875462816,31.2
76263622283801,9.751388,981.0,10.0,-0.14041466,-0.07312072,-0.98738918,1.0000001546086412,0.0,0.0,0.0,-1.3729310000000001,0.7158854499999999,9.669356899999999,-0.6586,-0.0771,0.019,-0.7483,4.235285636782925,-8.071841536903616,96.99790875462816,31.2
76263632442593,10.158792,991.0,10.0,-0.14041466,-0.07312072,-0.98738918,1.0000001546086412,0.0,0.0,0.0,-1.3827376499999997,0.7060787999999999,9.67916355,-0.6586,-0.0771,0.019,-0.7483,4.235285636782925,-8.071841536903616,96.99790875462816,31.2
76263642386067,9.943474,1001.0,10.0,-0.14041466,-0.07312072,-0.98738918,1.0000001546086412,0.0,0.0,0.0,-1.36312435,0.7256921,9.67916355,-0.6586,-0.0771,0.019,-0.7483,4.235285636782925,-8.071841536903616,96.99790875462816,31.2
76263652574488,10.188421,1011.0,10.0,-0.14041466,-0.07312072,-0.98738918,1.0000001546086412,0.0,0.0,0.0,-1.3827376499999997,0.7158854499999999,9.67916355,-0.6586,-0.0771,0.019,-0.7483,4.235285636782925,-8.071841536903616,96.99790875462816,31.2
76263662366495,9.792007,1021.0,10.0,-0.14041466,-0.07312072,-0.98738918,1.0000001546086412,0.0,0.0,0.0,-1.3827376499999997,0.7158854499999999,9.6889702,-0.6586,-0.0771,0.019,-0.7483,4.235285636782925,-8.071841536903616,96.99790875462816,31.2
76263672439916,10.073421,1031.0,10.0,-0.14041466,-0.07312072,-0.98738918,1.0000001546086412,0.0,0.0,0.0,-1.3827376499999997,0.7158854499999999,9.67916355,-0.6586,-0.0771,0.019,-0.7483,4.235285636782925,-8.071841536903616,96.99790875462816,31.2
76263682458109,10.018193,1041.0,10.0,-0.14041466,-0.07312072,-0.98738918,1.0000001546086412,0.0,0.0,0.0,-1.3729310000000001,0.7158854499999999,9.6889702,-0.6586,-0.0771,0.019,-0.7483,4.235285636782925,-8.071841536903616,96.99790875462816,31.2
76263692457087,9.998978,1051.0,10.0,-0.14041466,-0.07312072,-0.98738918,1.0000001546086412,0.0,0.0,0.0,-1.3729310000000001,0.7256921,9.6889702,-0.6586,-0.0771,0.019,-0.7483,4.235285636782925,-8.071841536903616,96.99790875462816,31.2
76263702556423,10.099336,1061.0,10.0,-0.14041466,-0.07312072,-0.98738918,1.0000001546086412,0.0,0.0,0.0,-1.3729310000000001,0.7060787999999999,9.6889702,-0.6586,-0.0771,0.019,-0.7483,4.235285636782925,-8.071841536903616,96.99790875462816,31.2
76263712497613,9.94119,1071.0,10.0,-0.14041466,-0.07312072,-0.98738918,1.0000001546086412,0.0,0.0,0.0,-1.3729310000000001,0.7158854499999999,9.6889702,-0.6586,-0.0771,0.019,-0.7483,4.235285636782925,-8.071841536903616,96.99790875462816,31.2
76263722516997,10.019384,1081.0,10.0,-0.14041466,-0.07312072,-0.98738918,1.0000001546086412,0.0,0.0,0.0,-1.3827376499999997,0.7256921,9.67916355,-0.6586,-0.0771,0.019,-0.7483,4.235285636782925,-8.071841536903616,96.99790875462816,31.2
76263732368077,9.85108,1091.0,10.0,-0.14041466,-0.07312072,-0.98738918,1.0000001546086412,0.0,0.0,0.0,-1.3827376499999997,0.7060787999999999,9.67916355,-0.6586,-0.0771,0.019,-0.7483,4.235285636782925,-8.071841536903616,96.99790875462816,31.2
76263742300414,9.932337,1101.0,10.0,-0.14041466,-0.07312072,-0.98738918,1.0000001546086412,0.0,0.0,0.0,-1.3729310000000001,0.7158854499999999,9.6889702,-0.6586,-0.0771,0.019,-0.7483,4.235285636782925,-8.071841536903616,96.99790875462816,31.2
76263752254124,9.95371,1111.0,10.0,-0.14041466,-0.07312072,-0.98738918,1.0000001546086412,0.0,0.0,0.0,-1.3729310000000001,0.7256921,9.67916355,-0.6586,-0.0771,0.019,-0.7483,4.235285636782925,-8.071841536903616,96.99790875462816,31.2
76263762262090,10.007966,1121.0,10.0,-0.14041466,-0.07312072,-0.98738918,1.0000001546086412,0.0,0.0,0.0,-1.3729310000000001,0.7256921,9.67916355,-0.6586,-0.0771,0.019,-0.7483,4.235285636782925,-8.071841536903616,96.99790875462816,31.2
76263772264706,10.002616,1131.0,10.0,-0.14041466,-0.07312072,-0.98738918,1.0000001546086412,0.0,0.0,0.0,-1.3729310000000001,0.7158854499999999,9.6889702,-0.6586,-0.0771,0.019,-0.7483,4.235285636782925,-8.071841536903616,96.99790875462816,31.2
76263782245603,9.980897,1141.0,10.0,-0.14041466,-0.07312072,-0.98738918,1.0000001546086412,0.0,0.0,0.0,-1.3729310000000001,0.7256921,9.67916355,-0.6586,-0.0771,0.019,-0.7483,4.235285636782925,-8.071841536903616,96.99790875462816,31.2
76263792366585,10.120982,1151.0,10.0,-0.14041466,-0.07312072,-0.98738918,1.0000001546086412,0.0,0.0,0.0,-1.3729310000000001,0.7158854499999999,9.669356899999999,-0.6586,-0.0771,0.019,-0.7483,4.235285636782925,-8.071841536903616,96.99790875462816,31.2
76263802351391,9.984806,1161.0,10.0,-0.14041466,-0.07312072,-0.98738918,1.0000001546086412,0.0,0.0,0.0,-1.3729310000000001,0.7060787999999999,9.6889702,-0.6586,-0.0771,0.019,-0.7483,4.235285636782925,-8.071841536903616,96.99790875462816,31.2
76263812347750,9.996359,1171.0,10.0,-0.14041466,-0.07312072,-0.98738918,1.0000001546086412,0.0,0.0,0.0,-1.3729310000000001,0.7256921,9.67916355,-0.6586,-0.0771,0.019,-0.7483,4.235285636782925,-8.071841536903616,96.99790875462816,31.2
76263822366664,10.018914,1181.0,10.0,-0.14041466,-0.07312072,-0.98738918,1.0000001546086412,0.0,0.0,0.0,-1.3925442999999997,0.7158854499999999,9.67916355,-0.6586,-0.0771,0.019,-0.7483,4.235285636782925,-8.071841536903616,96.99790875462816,31.2
76263832321872,9.955208,1191.0,10.0,-0.14041466,-0.07312072,-0.98738918,1.0000001546086412,0.0,0.0,0.0,-1.3729310000000001,0.7158854499999999,9.67916355,-0.6586,-0.0771,0.019,-0.7483,4.235285636782925,-8.071841536903616,96.99790875462816,31.2
76263842453921,10.132049,1201.0,10.0,-0.14041466,-0.07312072,-0.98738918,1.0000001546086412,0.0,0.0,0.0,-1.3827376499999997,0.7158854499999999,9.6889702,-0.6586,-0.0771,0.019,-0.7483,4.235285636782925,-8.071841536903616,96.99790875462816,31.2
76263852438116,9.984195,1211.0,10.0,-0.14041466,-0.07312072,-0.98738918,1.0000001546086412,0.0,0.0,0.0,-1.3827376499999997,0.7158854499999999,9.67916355,-0.6586,-0.0771,0.019,-0.7483,4.235285636782925,-8.071841536903616,96.99790875462816,31.2
76263862421826,9.98371,1221.0,10.0,-0.14041466,-0.07312072,-0.98738918,1.0000001546086412,0.0,0.0,0.0,-1.3729310000000001,0.7158854499999999,9.6889702,-0.6586,-0.0771,0.019,-0.7483,4.235285636782925,-8.071841536903616,96.99790875462816,31.2
76263872333118,9.911292,1231.0,10.0,-0.14041466,-0.07312072,-0.98738918,1.0000001546086412,0.0,0.0,0.0,-1.3729310000000001,0.7158854499999999,9.67916355,-0.6586,-0.0771,0.019,-0.7483,4.235285636782925,-8.071841536903616,96.99790875462816,31.2
76263882367121,10.034003,1241.0,10.0,-0.14041466,-0.07312072,-0.98738918,1.0000001546086412,0.0,0.0,0.0,-1.3729310000000001,0.7158854499999999,9.6889702,-0.6586,-0.0771,0.019,-0.7483,4.235285636782925,-8.071841536903616,96.99790875462816,31.2
76263892348448,9.981327,1251.0,10.0,-0.14041466,-0.07312072,-0.98738918,1.0000001546086412,0.0,0.0,0.0,-1.3729310000000001,0.7158854499999999,9.67916355,-0.6586,-0.0771,0.019,-0.7483,4.235285636782925,-8.071841536903616,96.99790875462816,31.2
76263902350837,10.002389,1261.0,10.0,-0.14041466,-0.07312072,-0.98738918,1.0000001546086412,0.0,0.0,0.0,-1.3827376499999997,0.7060787999999999,9.67916355,-0.6586,-0.0771,0.019,-0.7483,4.235285636782925,-8.071841536903616,96.99790875462816,31.2
76263912385485,10.034648,1271.0,10.0,-0.14041466,-0.07312072,-0.98738918,1.0000001546086412,0.0,0.0,0.0,-1.3827376499999997,0.7158854499999999,9.67916355,-0.6586,-0.0771,0.019,-0.7483,4.235285636782925,-8.071841536903616,96.99790875462816,31.2
76263922301055,9.91557,1281.0,10.0,-0.14041466,-0.07312072,-0.98738918,1.0000001546086412,0.0,0.0,0.0,-1.3729310000000001,0.7256921,9.67916355,-0.6586,-0.0771,0.019,-0.7483,4.235285636782925,-8.071841536903616,96.99790875462816,31.2
76263932285507,9.984452,1291.0,10.0,-0.14041466,-0.07312072,-0.98738918,1.0000001546086412,0.0,0.0,0.0,-1.3729310000000001,0.7158854499999999,9.6889702,-0.6586,-0.0771,0.019,-0.7483,4.235285636782925,-8.071841536903616,96.99790875462816,31.2
76263942371406,10.085899,1301.0,10.0,-0.14041466,-0.07312072,-0.98738918,1.0000001546086412,0.0,0.0,0.0,-1.3827376499999997,0.7060787999999999,9.67916355,-0.6586,-0.0771,0.019,-0.7483,4.235285636782925,-8.071841536903616,96.99790875462816,31.2
76263952349543,9.978137,1311.0,10.0,-0.14041466,-0.07312072,-0.98738918,1.0000001546086412,0.0,0.0,0.0,-1.3729310000000001,0.7256921,9.6889702,-0.6586,-0.0771,0.019,-0.7483,4.235285636782925,-8.071841536903616,96.99790875462816,31.2
76263962356900,10.007357,1321.0,10.0,-0.14041466,-0.07312072,-0.98738918,1.0000001546086412,0.0,0.0,0.0,-1.3729310000000001,0.7256921,9.67916355,-0.6586,-0.0771,0.019,-0.7483,4.235285636782925,-8.071841536903616,96.99790875462816,31.2
76263972350652,9.993752,1331.0,10.0,-0.14041466,-0.07312072,-0.98738918,1.0000001546086412,0.0,0.0,0.0,-1.3827376499999997,0.7060787999999999,9.67916355,-0.6586,-0.0771,0.019,-0.7483,4.235285636782925,-8.071841536903616,96.99790875462816,31.2
76264012267077,39.916425,1371.0,40.0,-0.14041466,-0.07312072,-0.98738918,1.0000001546086412,0.0,0.0,0.0,-1.3729310000000001,0.7256921,9.6889702,-0.6586,-0.0771,0.019,-0.7483,4.235285636782925,-8.071841536903616,96.99790875462816,31.2
76264022280074,10.012997,1381.0,10.0,-0.14041466,-0.07312072,-0.98738918,1.0000001546086412,0.0,0.0,0.0,-1.3827376499999997,0.7060787999999999,9.669356899999999,-0.6586,-0.0771,0.019,-0.7483,4.235285636782925,-8.071841536903616,96.99790875462816,31.2
76264032254926,9.974852,1391.0,10.0,-0.14041466,-0.07312072,-0.98738918,1.0000001546086412,0.0,0.0,0.0,-1.3827376499999997,0.7158854499999999,9.67916355,-0.6586,-0.0771,0.019,-0.7483,4.235285636782925,-8.071841536903616,96.99790875462816,31.2
76264042343830,10.088904,1401.0,10.0,-0.14041466,-0.07312072,-0.98738918,1.0000001546086412,0.0,0.0,0.0,-1.3729310000000001,0.7158854499999999,9.67916355,-0.6586,-0.0771,0.019,-0.7483,4.235285636782925,-8.071841536903616,96.99790875462816,31.2
76264082370794,40.026964,1441.0,40.0,-0.14041466,-0.07312072,-0.98738918,1.0000001546086412,0.0,0.0,0.0,-1.3729310000000001,0.7158854499999999,9.67916355,-0.6586,-0.0771,0.019,-0.7483,4.235285636782925,-8.071841536903616,96.99790875462816,31.2
76264352291113,269.920319,1711.0,270.0,-0.14041466,-0.07312072,-0.98738918,1.0000001546086412,0.0,0.0,0.0,-1.3827376499999997,0.7256921,9.6889702,-0.6586,-0.0771,0.019,-0.7483,4.235285636782925,-8.071841536903616,96.99790875462816,31.2
76264462329260,110.038147,1821.0,110.0,-0.14041466,-0.07312072,-0.98738918,1.0000001546086412,0.0,0.0,0.0,-1.3827376499999997,0.7158854499999999,9.6889702,-0.6586,-0.0771,0.019,-0.7483,4.235285636782925,-8.071841536903616,96.99790875462816,31.2
76264472311194,9.981934,1831.0,10.0,-0.14041466,-0.07312072,-0.98738918,1.0000001546086412,0.0,0.0,0.0,-1.3729310000000001,0.7158854499999999,9.67916355,-0.6586,-0.0771,0.019,-0.7483,4.235285636782925,-8.071841536903616,96.99790875462816,31.2
76264482144130,9.832936,1841.0,10.0,-0.14041466,-0.07312072,-0.98738918,1.0000001546086412,0.0,0.0,0.0,-1.3827376499999997,0.7158854499999999,9.67916355,-0.6586,-0.0771,0.019,-0.7483,4.235285636782925,-8.071841536903616,96.99790875462816,31.2
76264492204458,10.060328,1851.0,10.0,-0.14041466,-0.07312072,-0.98738918,1.0000001546086412,0.0,0.0,0.0,-1.3827376499999997,0.7158854499999999,9.67916355,-0.6586,-0.0771,0.019,-0.7483,4.235285636782925,-8.071841536903616,96.99790875462816,31.2
76264542238893,50.034435,1901.0,50.0,-0.14041466,-0.07312072,-0.98738918,1.0000001546086412,0.0,0.0,0.0,-1.3729310000000001,0.7158854499999999,9.67916355,-0.6586,-0.0771,0.019,-0.7483,4.235285636782925,-8.071841536903616,96.99790875462816,31.2
76264552298934,10.060041,1911.0,10.0,-0.14041466,-0.07312072,-0.98738918,1.0000001546086412,0.0,0.0,0.0,-1.3729310000000001,0.7060787999999999,9.67916355,-0.6586,-0.0771,0.019,-0.7483,4.235285636782925,-8.071841536903616,96.99790875462816,31.2
76264562221593,9.922659,1921.0,10.0,-0.14041466,-0.07312072,-0.98738918,1.0000001546086412,0.0,0.0,0.0,-1.3827376499999997,0.7060787999999999,9.67916355,-0.6586,-0.0771,0.019,-0.7483,4.235285636782925,-8.071841536903616,96.99790875462816,31.2
76264572243680,10.022087,1931.0,10.0,-0.14041466,-0.07312072,-0.98738918,1.0000001546086412,0.0,0.0,0.0,-1.3729310000000001,0.7060787999999999,9.69877685,-0.6586,-0.0771,0.019,-0.7483,4.235285636782925,-8.071841536903616,96.99790875462816,31.2
76264582257219,10.013539,1941.0,10.0,-0.14041466,-0.07312072,-0.98738918,1.0000001546086412,0.0,0.0,0.0,-1.3827376499999997,0.7256921,9.669356899999999,-0.6586,-0.0771,0.019,-0.7483,4.235285636782925,-8.071841536903616,96.99790875462816,31.2
76264592280252,10.023033,1951.0,10.0,-0.14041466,-0.07312072,-0.98738918,1.0000001546086412,0.0,0.0,0.0,-1.3729310000000001,0.7256921,9.67916355,-0.6586,-0.0771,0.019,-0.7483,4.235285636782925,-8.071841536903616,96.99790875462816,31.2
76264602228305,9.948053,1961.0,10.0,-0.14041466,-0.07312072,-0.98738918,1.0000001546086412,0.0,0.0,0.0,-1.3827376499999997,0.7060787999999999,9.6889702,-0.6586,-0.0771,0.019,-0.7483,4.235285636782925,-8.071841536903616,96.99790875462816,31.2
76264612288286,10.059981,1971.0,10.0,-0.14041466,-0.07312072,-0.98738918,1.0000001546086412,0.0,0.0,0.0,-1.3729310000000001,0.7060787999999999,9.6889702,-0.6586,-0.0771,0.019,-0.7483,4.235285636782925,-8.071841536903616,96.99790875462816,31.2
76264622250504,9.962218,1981.0,10.0,-0.14041466,-0.07312072,-0.98738918,1.0000001546086412,0.0,0.0,0.0,-1.3827376499999997,0.7158854499999999,9.67916355,-0.6586,-0.0771,0.019,-0.7483,4.235285636782925,-8.071841536903616,96.99790875462816,31.2
76264632294128,10.043624,1991.0,10.0,-0.14041466,-0.07312072,-0.98738918,1.0000001546086412,0.0,0.0,0.0,-1.3729310000000001,0.7158854499999999,9.67916355,-0.6586,-0.0771,0.019,-0.7483,4.235285636782925,-8.071841536903616,96.99790875462816,31.2
76264642284274,9.990146,2001.0,10.0,-0.14041466,-0.07312072,-0.98738918,1.0000001546086412,0.0,0.0,0.0,-1.3827376499999997,0.7256921,9.67916355,-0.6586,-0.0771,0.019,-0.7483,4.235285636782925,-8.071841536903616,96.99790875462816,31.2
76264652211238,9.926964,2011.0,10.0,-0.14041466,-0.07312072,-0.98738918,1.0000001546086412,0.0,0.0,0.0,-1.3827376499999997,0.7158854499999999,9.6889702,-0.6586,-0.0771,0.019,-0.7483,4.235285636782925,-8.071841536903616,96.99790875462816,31.2
76264662259013,10.047775,2021.0,10.0,-0.14041466,-0.07312072,-0.98738918,1.0000001546086412,0.0,0.0,0.0,-1.3925442999999997,0.73549875,9.67916355,-0.6586,-0.0771,0.019,-0.7483,4.235285636782925,-8.071841536903616,96.99790875462816,31.2
76264672293481,10.034468,2031.0,10.0,-0.14041466,-0.07312072,-0.98738918,1.0000001546086412,0.0,0.0,0.0,-1.3827376499999997,0.7158854499999999,9.67916355,-0.6586,-0.0771,0.019,-0.7483,4.235285636782925,-8.071841536903616,96.99790875462816,31.2
76264682354095,10.060614,2041.0,10.0,-0.14041466,-0.07312072,-0.98738918,1.0000001546086412,0.0,0.0,0.0,-1.3827376499999997,0.7158854499999999,9.6889702,-0.6586,-0.0771,0.019,-0.7483,4.235285636782925,-8.071841536903616,96.99790875462816,31.2
76264692426505,10.07241,2051.0,10.0,-0.14041466,-0.07312072,-0.98738918,1.0000001546086412,0.0,0.0,0.0,-1.36312435,0.7158854499999999,9.6889702,-0.6586,-0.0771,0.019,-0.7483,4.235285636782925,-8.071841536903616,96.99790875462816,31.2
76264712409449,19.982944,2071.0,20.0,-0.14041466,-0.07312072,-0.98738918,1.0000001546086412,0.0,0.0,0.0,-1.3827376499999997,0.7060787999999999,9.669356899999999,-0.6586,-0.0771,0.019,-0.7483,4.235285636782925,-8.071841536903616,96.99790875462816,31.2
76264732239796,19.830347,2091.0,20.0,-0.14041466,-0.07312072,-0.98738918,1.0000001546086412,0.0,0.0,0.0,-1.3729310000000001,0.7158854499999999,9.67916355,-0.6586,-0.0771,0.019,-0.7483,4.235285636782925,-8.071841536903616,96.99790875462816,31.2
76264832207883,99.968087,2191.0,100.0,-0.14041466,-0.07312072,-0.98738918,1.0000001546086412,0.0,0.0,0.0,-1.3729310000000001,0.7158854499999999,9.67916355,-0.6586,-0.0771,0.019,-0.7483,4.235285636782925,-8.071841536903616,96.99790875462816,31.2
76264842269585,10.061702,2201.0,10.0,-0.14041466,-0.07312072,-0.98738918,1.0000001546086412,0.0,0.0,0.0,-1.3827376499999997,0.7158854499999999,9.67916355,-0.6586,-0.0771,0.019,-0.7483,4.235285636782925,-8.071841536903616,96.99790875462816,31.2
76264852299416,10.029831,2211.0,10.0,-0.14041466,-0.07312072,-0.98738918,1.0000001546086412,0.0,0.0,0.0,-1.3827376499999997,0.7060787999999999,9.67916355,-0.6586,-0.0771,0.019,-0.7483,4.235285636782925,-8.071841536903616,96.99790875462816,31.2
76264862297210,9.997794,2221.0,10.0,-0.14041466,-0.07312072,-0.98738918,1.0000001546086412,0.0,0.0,0.0,-1.3827376499999997,0.7256921,9.669356899999999,-0.6586,-0.0771,0.019,-0.7483,4.235285636782925,-8.071841536903616,96.99790875462816,31.2
76264872150148,9.852938,2231.0,10.0,-0.14041466,-0.07312072,-0.98738918,1.0000001546086412,0.0,0.0,0.0,-1.3729310000000001,0.7158854499999999,9.669356899999999,-0.6586,-0.0771,0.019,-0.7483,4.235285636782925,-8.071841536903616,96.99790875462816,31.2
76264882232995,10.082847,2241.0,10.0,-0.14041466,-0.07312072,-0.98738918,1.0000001546086412,0.0,0.0,0.0,-1.3827376499999997,0.7158854499999999,9.67916355,-0.6586,-0.0771,0.019,-0.7483,4.235285636782925,-8.071841536903616,96.99790875462816,31.2
76264892223908,9.990913,2251.0,10.0,-0.14041466,-0.07312072,-0.98738918,1.0000001546086412,0.0,0.0,0.0,-1.3827376499999997,0.7158854499999999,9.669356899999999,-0.6586,-0.0771,0.019,-0.7483,4.235285636782925,-8.071841536903616,96.99790875462816,31.2
76264902147893,9.923985,2261.0,10.0,-0.14041466,-0.07312072,-0.98738918,1.0000001546086412,0.0,0.0,0.0,-1.3729310000000001,0.7158854499999999,9.669356899999999,-0.6586,-0.0771,0.019,-0.7483,4.235285636782925,-8.071841536903616,96.99790875462816,31.2
76264912163529,10.015636,2271.0,10.0,-0.14041466,-0.07312072,-0.98738918,1.0000001546086412,0.0,0.0,0.0,-1.3827376499999997,0.7158854499999999,9.6889702,-0.6586,-0.0771,0.019,-0.7483,4.235285636782925,-8.071841536903616,96.99790875462816,31.2
76265032302682,120.139153,2391.0,120.0,-0.14041466,-0.07312072,-0.98738918,1.0000001546086412,0.0,0.0,0.0,-1.3729310000000001,0.7158854499999999,9.67916355,-0.6586,-0.0771,0.019,-0.7483,4.235285636782925,-8.071841536903616,96.99790875462816,31.2
76265042299846,9.997164,2401.0,10.0,-0.14041466,-0.07312072,-0.98738918,1.0000001546086412,0.0,0.0,0.0,-1.3729310000000001,0.7158854499999999,9.67916355,-0.6586,-0.0771,0.019,-0.7483,4.235285636782925,-8.071841536903616,96.99790875462816,31.2
76265052181682,9.881836,2411.0,10.0,-0.14041466,-0.07312072,-0.98738918,1.0000001546086412,0.0,0.0,0.0,-1.3827376499999997,0.7158854499999999,9.67916355,-0.6586,-0.0771,0.019,-0.7483,4.235285636782925,-8.071841536903616,96.99790875462816,31.2
76265062186207,10.004525,2421.0,10.0,-0.14041466,-0.07312072,-0.98738918,1.0000001546086412,0.0,0.0,0.0,-1.3827376499999997,0.7158854499999999,9.6889702,-0.6586,-0.0771,0.019,-0.7483,4.235285636782925,-8.071841536903616,96.99790875462816,31.2
76265072156145,9.969938,2431.0,10.0,-0.14041466,-0.07312072,-0.98738918,1.0000001546086412,0.0,0.0,0.0,-1.3729310000000001,0.7060787999999999,9.67916355,-0.6586,-0.0771,0.019,-0.7483,4.235285636782925,-8.071841536903616,96.99790875462816,31.2
76265082162801,10.006656,2441.0,10.0,-0.14041466,-0.07312072,-0.98738918,1.0000001546086412,0.0,0.0,0.0,-1.3729310000000001,0.7256921,9.6889702,-0.6586,-0.0771,0.019,-0.7483,4.235285636782925,-8.071841536903616,96.99790875462816,31.2
76265092162529,9.999728,2451.0,10.0,-0.14041466,-0.07312072,-0.98738918,1.0000001546086412,0.0,0.0,0.0,-1.3827376499999997,0.7158854499999999,9.67916355,-0.6586,-0.0771,0.019,-0.7483,4.235285636782925,-8.071841536903616,96.99790875462816,31.2
76265102145481,9.982952,2461.0,10.0,-0.14041466,-0.07312072,-0.98738918,1.0000001546086412,0.0,0.0,0.0,-1.3827376499999997,0.7158854499999999,9.669356899999999,-0.6586,-0.0771,0.019,-0.7483,4.235285636782925,-8.071841536903616,96.99790875462816,31.2
76265112216229,10.070748,2471.0,10.0,-0.14041466,-0.07312072,-0.98738918,1.0000001546086412,0.0,0.0,0.0,-1.3729310000000001,0.7158854499999999,9.6889702,-0.6586,-0.0771,0.019,-0.7483,4.235285636782925,-8.071841536903616,96.99790875462816,31.2
76265122136051,9.919822,2481.0,10.0,-0.14041466,-0.07312072,-0.98738918,1.0000001546086412,0.0,0.0,0.0,-1.3729310000000001,0.7158854499999999,9.67916355,-0.6586,-0.0771,0.019,-0.7483,4.235285636782925,-8.071841536903616,96.99790875462816,31.2
76265132145217,10.009166,2491.0,10.0,-0.14041466,-0.07312072,-0.98738918,1.0000001546086412,0.0,0.0,0.0,-1.3827376499999997,0.7256921,9.67916355,-0.6586,-0.0771,0.019,-0.7483,4.235285636782925,-8.071841536903616,96.99790875462816,31.2
76265142155778,10.010561,2501.0,10.0,-0.14041466,-0.07312072,-0.98738918,1.0000001546086412,0.0,0.0,0.0,-1.3827376499999997,0.7060787999999999,9.669356899999999,-0.6586,-0.0771,0.019,-0.7483,4.235285636782925,-8.071841536903616,96.99790875462816,31.2
76265152248589,10.092811,2511.0,10.0,-0.14041466,-0.07312072,-0.98738918,1.0000001546086412,0.0,0.0,0.0,-1.36312435,0.7158854499999999,9.669356899999999,-0.6586,-0.0771,0.019,-0.7483,4.235285636782925,-8.071841536903616,96.99790875462816,31.2
76265162243052,9.994463,2521.0,10.0,-0.14041466,-0.07312072,-0.98738918,1.0000001546086412,0.0,0.0,0.0,-1.3827376499999997,0.7060787999999999,9.6889702,-0.6586,-0.0771,0.019,-0.7483,4.235285636782925,-8.071841536903616,96.99790875462816,31.2
76265172302543,10.059491,2531.0,10.0,-0.14041466,-0.07312072,-0.98738918,1.0000001546086412,0.0,0.0,0.0,-1.3827376499999997,0.7158854499999999,9.67916355,-0.6586,-0.0771,0.019,-0.7483,4.235285636782925,-8.071841536903616,96.99790875462816,31.2
76265182247081,9.944538,2541.0,10.0,-0.14041466,-0.07312072,-0.98738918,1.0000001546086412,0.0,0.0,0.0,-1.3827376499999997,0.7158854499999999,9.67916355,-0.6586,-0.0771,0.019,-0.7483,4.235285636782925,-8.071841536903616,96.99790875462816,31.2
76265192150566,9.903485,2551.0,10.0,-0.14041466,-0.07312072,-0.98738918,1.0000001546086412,0.0,0.0,0.0,-1.36312435,0.7060787999999999,9.67916355,-0.6586,-0.0771,0.019,-0.7483,4.235285636782925,-8.071841536903616,96.99790875462816,31.2
76265202151969,10.001403,2561.0,10.0,-0.14041466,-0.07312072,-0.98738918,1.0000001546086412,0.0,0.0,0.0,-1.3729310000000001,0.7158854499999999,9.67916355,-0.6586,-0.0771,0.019,-0.7483,4.235285636782925,-8.071841536903616,96.99790875462816,31.2
76265212255343,10.103374,2571.0,10.0,-0.14041466,-0.07312072,-0.98738918,1.0000001546086412,0.0,0.0,0.0,-1.36312435,0.7158854499999999,9.669356899999999,-0.6586,-0.0771,0.019,-0.7483,4.235285636782925,-8.071841536903616,96.99790875462816,31.2
76265252248254,39.992911,2611.0,40.0,-0.14041466,-0.07312072,-0.98738918,1.0000001546086412,0.0,0.0,0.0,-1.36312435,0.7158854499999999,9.69877685,-0.6586,-0.0771,0.019,-0.7483,4.235285636782925,-8.071841536903616,96.99790875462816,31.2
76265262234943,9.986689,2621.0,10.0,-0.14041466,-0.07312072,-0.98738918,1.0000001546086412,0.0,0.0,0.0,-1.3827376499999997,0.7060787999999999,9.67916355,-0.6586,-0.0771,0.019,-0.7483,4.235285636782925,-8.071841536903616,96.99790875462816,31.2
76265282308702,20.073759,2641.0,20.0,-0.14041466,-0.07312072,-0.98738918,1.0000001546086412,0.0,0.0,0.0,-1.3729310000000001,0.7158854499999999,9.6889702,-0.6586,-0.0771,0.019,-0.7483,4.235285636782925,-8.071841536903616,96.99790875462816,31.2
76265292297071,9.988369,2651.0,10.0,-0.14041466,-0.07312072,-0.98738918,1.0000001546086412,0.0,0.0,0.0,-1.3827376499999997,0.7158854499999999,9.67916355,-0.6586,-0.0771,0.019,-0.7483,4.235285636782925,-8.071841536903616,96.99790875462816,31.2
76265302249937,9.952866,2661.0,10.0,-0.14041466,-0.07312072,-0.98738918,1.0000001546086412,0.0,0.0,0.0,-1.36312435,0.7158854499999999,9.67916355,-0.6586,-0.0771,0.019,-0.7483,4.235285636782925,-8.071841536903616,96.99790875462816,31.2
76265312308148,10.058211,2671.0,10.0,-0.14041466,-0.07312072,-0.98738918,1.0000001546086412,0.0,0.0,0.0,-1.3729310000000001,0.7158854499999999,9.67916355,-0.6586,-0.0771,0.019,-0.7483,4.235285636782925,-8.071841536903616,96.99790875462816,31.2
76265322315939,10.007791,2681.0,10.0,-0.14041466,-0.07312072,-0.98738918,1.0000001546086412,0.0,0.0,0.0,-1.36312435,0.7158854499999999,9.67916355,-0.6586,-0.0771,0.019,-0.7483,4.235285636782925,-8.071841536903616,96.99790875462816,31.2
76265332258933,9.942994,2691.0,10.0,-0.14041466,-0.07312072,-0.98738918,1.0000001546086412,0.0,0.0,0.0,-1.3827376499999997,0.7158854499999999,9.669356899999999,-0.6586,-0.0771,0.019,-0.7483,4.235285636782925,-8.071841536903616,96.99790875462816,31.2
76265342303962,10.045029,2701.0,10.0,-0.14041466,-0.07312072,-0.98738918,1.0000001546086412,0.0,0.0,0.0,-1.3729310000000001,0.7158854499999999,9.6889702,-0.6586,-0.0771,0.019,-0.7483,4.235285636782925,-8.071841536903616,96.99790875462816,31.2
76265352300351,9.996389,2711.0,10.0,-0.14041466,-0.07312072,-0.98738918,1.0000001546086412,0.0,0.0,0.0,-1.3729310000000001,0.7158854499999999,9.6889702,-0.6586,-0.0771,0.019,-0.7483,4.235285636782925,-8.071841536903616,96.99790875462816,31.2
76265462220511,109.92016,2821.0,110.0,-0.14041466,-0.07312072,-0.98738918,1.0000001546086412,0.0,0.0,0.0,-1.3827376499999997,0.7158854499999999,9.669356899999999,-0.6586,-0.0771,0.019,-0.7483,4.235285636782925,-8.071841536903616,96.99790875462816,31.2
76265472137925,9.917414,2831.0,10.0,-0.14041466,-0.07312072,-0.98738918,1.0000001546086412,0.0,0.0,0.0,-1.3827376499999997,0.7060787999999999,9.6889702,-0.6586,-0.0771,0.019,-0.7483,4.235285636782925,-8.071841536903616,96.99790875462816,31.2
76265502196477,30.058552,2861.0,30.0,-0.14041466,-0.07312072,-0.98738918,1.0000001546086412,0.0,0.0,0.0,-1.3827376499999997,0.7158854499999999,9.67916355,-0.6586,-0.0771,0.019,-0.7483,4.235285636782925,-8.071841536903616,96.99790875462816,31.2
76265512176226,9.979749,2871.0,10.0,-0.14041466,-0.07312072,-0.98738918,1.0000001546086412,0.0,0.0,0.0,-1.3729310000000001,0.7158854499999999,9.6889702,-0.6586,-0.0771,0.019,-0.7483,4.235285636782925,-8.071841536903616,96.99790875462816,31.2
76265522242987,10.066761,2881.0,10.0,-0.14041466,-0.07312072,-0.98738918,1.0000001546086412,0.0,0.0,0.0,-1.3729310000000001,0.7158854499999999,9.67916355,-0.6586,-0.0771,0.019,-0.7483,4.235285636782925,-8.071841536903616,96.99790875462816,31.2
76265552242825,29.999838,2911.0,30.0,-0.14041466,-0.07312072,-0.98738918,1.0000001546086412,0.0,0.0,0.0,-1.3729310000000001,0.7158854499999999,9.6889702,-0.6586,-0.0771,0.019,-0.7483,4.235285636782925,-8.071841536903616,96.99790875462816,31.2
76265562301647,10.058822,2921.0,10.0,-0.14041466,-0.07312072,-0.98738918,1.0000001546086412,0.0,0.0,0.0,-1.36312435,0.7060787999999999,9.6889702,-0.6586,-0.0771,0.019,-0.7483,4.235285636782925,-8.071841536903616,96.99790875462816,31.2
76265572222152,9.920505,2931.0,10.0,-0.14041466,-0.07312072,-0.98738918,1.0000001546086412,0.0,0.0,0.0,-1.3827376499999997,0.7158854499999999,9.67916355,-0.6586,-0.0771,0.019,-0.7483,4.235285636782925,-8.071841536903616,96.99790875462816,31.2
76265582286931,10.064779,2941.0,10.0,-0.14041466,-0.07312072,-0.98738918,1.0000001546086412,0.0,0.0,0.0,-1.3827376499999997,0.7158854499999999,9.669356899999999,-0.6586,-0.0771,0.019,-0.7483,4.235285636782925,-8.071841536903616,96.99790875462816,31.2
76265612465573,30.178642,2971.0,30.0,-0.14041466,-0.07312072,-0.98738918,1.0000001546086412,0.0,0.0,0.0,-1.36312435,0.7060787999999999,9.669356899999999,-0.6586,-0.0771,0.019,-0.7483,4.235285636782925,-8.071841536903616,96.99790875462816,31.2
76265622422192,9.956619,2981.0,10.0,-0.14041466,-0.07312072,-0.98738918,1.0000001546086412,0.0,0.0,0.0,-1.3729310000000001,0.7256921,9.69877685,-0.6586,-0.0771,0.019,-0.7483,4.235285636782925,-8.071841536903616,96.99790875462816,31.2
76265632374287,9.952095,2991.0,10.0,-0.14041466,-0.07312072,-0.98738918,1.0000001546086412,0.0,0.0,0.0,-1.3827376499999997,0.7158854499999999,9.67916355,-0.6586,-0.0771,0.019,-0.7483,4.235285636782925,-8.071841536903616,96.99790875462816,31.2
76265652318453,19.944166,3011.0,20.0,-0.14041466,-0.07312072,-0.98738918,1.0000001546086412,0.0,0.0,0.0,-1.3729310000000001,0.7158854499999999,9.6889702,-0.6586,-0.0771,0.019,-0.7483,4.235285636782925,-8.071841536903616,96.99790875462816,31.2
76265662268093,9.94964,3021.0,10.0,-0.14041466,-0.07312072,-0.98738918,1.0000001546086412,0.0,0.0,0.0,-1.3729310000000001,0.7158854499999999,9.67916355,-0.6586,-0.0771,0.019,-0.7483,4.235285636782925,-8.071841536903616,96.99790875462816,31.2
76265692190842,29.922749,3051.0,30.0,-0.14041466,-0.07312072,-0.98738918,1.0000001546086412,0.0,0.0,0.0,-1.3729310000000001,0.7060787999999999,9.67916355,-0.6586,-0.0771,0.019,-0.7483,4.235285636782925,-8.071841536903616,96.99790875462816,31.2
76265732256254,40.065412,3091.0,40.0,-0.14041466,-0.07312072,-0.98738918,1.0000001546086412,0.0,0.0,0.0,-1.36312435,0.7158854499999999,9.67916355,-0.6586,-0.0771,0.019,-0.7483,4.235285636782925,-8.071841536903616,96.99790875462816,31.2
76265742220588,9.964334,3101.0,10.0,-0.14041466,-0.07312072,-0.98738918,1.0000001546086412,0.0,0.0,0.0,-1.3729310000000001,0.7060787999999999,9.6889702,-0.6586,-0.0771,0.019,-0.7483,4.235285636782925,-8.071841536903616,96.99790875462816,31.2
76265752211331,9.990743,3111.0,10.0,-0.14041466,-0.07312072,-0.98738918,1.0000001546086412,0.0,0.0,0.0,-1.3729310000000001,0.7256921,9.669356899999999,-0.6586,-0.0771,0.019,-0.7483,4.235285636782925,-8.071841536903616,96.99790875462816,31.2
76265762244121,10.03279,3121.0,10.0,-0.14041466,-0.07312072,-0.98738918,1.0000001546086412,0.0,0.0,0.0,-1.3729310000000001,0.7158854499999999,9.6889702,-0.6586,-0.0771,0.019,-0.7483,4.235285636782925,-8.071841536903616,96.99790875462816,31.2
76265772237733,9.993612,3131.0,10.0,-0.14041466,-0.07312072,-0.98738918,1.0000001546086412,0.0,0.0,0.0,-1.3729310000000001,0.7158854499999999,9.669356899999999,-0.6586,-0.0771,0.019,-0.7483,4.235285636782925,-8.071841536903616,96.99790875462816,31.2
76265782303516,10.065783,3141.0,10.0,-0.14041466,-0.07312072,-0.98738918,1.0000001546086412,0.0,0.0,0.0,-1.3729310000000001,0.7158854499999999,9.67916355,-0.6586,-0.0771,0.019,-0.7483,4.235285636782925,-8.071841536903616,96.99790875462816,31.2
76265952223296,169.91978,3311.0,170.0,-0.14041466,-0.07312072,-0.98738918,1.0000001546086412,0.0,0.0,0.0,-1.3827376499999997,0.7158854499999999,9.69877685,-0.6586,-0.0771,0.019,-0.7483,4.235285636782925,-8.071841536903616,96.99790875462816,31.2
76265962261978,10.038682,3321.0,10.0,-0.14041466,-0.07312072,-0.98738918,1.0000001546086412,0.0,0.0,0.0,-1.3925442999999997,0.7158854499999999,9.669356899999999,-0.6586,-0.0771,0.019,-0.7483,4.235285636782925,-8.071841536903616,96.99790875462816,31.2
76265972241182,9.979204,3331.0,10.0,-0.14041466,-0.07312072,-0.98738918,1.0000001546086412,0.0,0.0,0.0,-1.36312435,0.7158854499999999,9.67916355,-0.6586,-0.0771,0.019,-0.7483,4.235285636782925,-8.071841536903616,96.99790875462816,31.2
76266022171781,49.930599,3381.0,50.0,-0.14041466,-0.07312072,-0.98738918,1.0000001546086412,0.0,0.0,0.0,-1.3827376499999997,0.7158854499999999,9.6889702,-0.6586,-0.0771,0.019,-0.7483,4.235285636782925,-8.071841536903616,96.99790875462816,31.2
76266032258840,10.087059,3391.0,10.0,-0.14041466,-0.07312072,-0.98738918,1.0000001546086412,0.0,0.0,0.0,-1.3827376499999997,0.7256921,9.6889702,-0.6586,-0.0771,0.019,-0.7483,4.235285636782925,-8.071841536903616,96.99790875462816,31.2
76266052160207,19.901367,3411.0,20.0,-0.14041466,-0.07312072,-0.98738918,1.0000001546086412,0.0,0.0,0.0,-1.3827376499999997,0.7158854499999999,9.67916355,-0.6586,-0.0771,0.019,-0.7483,4.235285636782925,-8.071841536903616,96.99790875462816,31.2
