poll_monotonic,state_stamp,age_ms,sensor_ms,is_valid,changed,gravity_x,gravity_y,gravity_z,gravity_norm,gyro_x_dps,gyro_y_dps,gyro_z_dps,accel_x_mps2,accel_y_mps2,accel_z_mps2,temp_c
81465.035685188,81465.0342177,1.467488007619977,42349.0,True,True,-0.13993766,-0.07319492,-0.98745078,0.9999995439612411,0.0,0.0,0.0,-1.3827376499999997,0.7256921,9.67916355,31.9
81465.046096934,81465.044219707,1.8772270123008639,42359.0,True,True,-0.13993766,-0.07319492,-0.98745078,0.9999995439612411,0.0,0.0,0.0,-1.36312435,0.7060787999999999,9.67916355,31.8
81465.056472942,81465.054495737,1.9772050000028685,42369.0,True,True,-0.13993766,-0.07319492,-0.98745078,0.9999995439612411,0.0,0.0,0.0,-1.36312435,0.7158854499999999,9.67916355,31.9
81465.064742299,81465.064256468,0.4858309985138476,42379.0,True,True,-0.13993766,-0.07319492,-0.98745078,0.9999995439612411,0.0,0.0,0.0,-1.3729310000000001,0.7256921,9.67916355,31.9
81465.075158818,81465.074207368,0.9514499979559332,42389.0,True,True,-0.13993766,-0.07319492,-0.98745078,0.9999995439612411,0.0,0.0,0.0,-1.3729310000000001,0.7158854499999999,9.669356899999999,31.8
81465.085559853,81465.084223555,1.3362980098463595,42399.0,True,True,-0.13993766,-0.07319492,-0.98745078,0.9999995439612411,0.0,0.0,0.0,-1.3827376499999997,0.7060787999999999,9.67916355,31.9
81465.095971835,81465.094281884,1.6899510083021596,42409.0,True,True,-0.13993766,-0.07319492,-0.98745078,0.9999995439612411,0.0,0.0,0.0,-1.36312435,0.7158854499999999,9.67916355,31.9
81465.10430724,81465.104244199,0.06304100679699332,42419.0,True,True,-0.13993766,-0.07319492,-0.98745078,0.9999995439612411,0.0,0.0,0.0,-1.3827376499999997,0.7158854499999999,9.67916355,31.8
81465.114658955,81465.114225496,0.43345900485292077,42429.0,True,True,-0.13993766,-0.07319492,-0.98745078,0.9999995439612411,0.0,0.0,0.0,-1.3729310000000001,0.7158854499999999,9.67916355,31.8
81465.125074324,81465.124388066,0.6862579903099686,42439.0,True,True,-0.13993766,-0.07319492,-0.98745078,0.9999995439612411,0.0,0.0,0.0,-1.36312435,0.7060787999999999,9.6889702,31.8
81465.135376393,81465.134276239,1.1001539969583973,42449.0,True,True,-0.13993766,-0.07319492,-0.98745078,0.9999995439612411,0.0,0.0,0.0,-1.3827376499999997,0.7256921,9.67916355,31.9
81465.145668049,81465.144236199,1.4318499888759106,42459.0,True,True,-0.13993766,-0.07319492,-0.98745078,0.9999995439612411,0.0,0.0,0.0,-1.3827376499999997,0.7158854499999999,9.6889702,31.8
81465.15602961,81465.154306076,1.723534005577676,42469.0,True,True,-0.13993766,-0.07319492,-0.98745078,0.9999995439612411,0.0,0.0,0.0,-1.3729310000000001,0.7256921,9.67916355,31.8
81465.166393846,81465.164331175,2.062671002931893,42479.0,True,True,-0.13993766,-0.07319492,-0.98745078,0.9999995439612411,0.0,0.0,0.0,-1.3729310000000001,0.7158854499999999,9.669356899999999,31.8
81465.174623378,81465.174211811,0.4115670017199591,42489.0,True,True,-0.13993766,-0.07319492,-0.98745078,0.9999995439612411,0.0,0.0,0.0,-1.36312435,0.7256921,9.67916355,31.8
81465.18504906,81465.18426884,0.7802199979778379,42499.0,True,True,-0.13993766,-0.07319492,-0.98745078,0.9999995439612411,0.0,0.0,0.0,-1.36312435,0.7060787999999999,9.6889702,31.8
81465.195374955,81465.194214758,1.1601970036281273,42509.0,True,True,-0.13993766,-0.07319492,-0.98745078,0.9999995439612411,0.0,0.0,0.0,-1.36312435,0.7256921,9.67916355,31.8
81465.205660334,81465.20422863,1.4317040040623397,42519.0,True,True,-0.13993766,-0.07319492,-0.98745078,0.9999995439612411,0.0,0.0,0.0,-1.3729310000000001,0.7158854499999999,9.6889702,31.8
81465.21603342,81465.214289259,1.7441609961679205,42529.0,True,True,-0.13993766,-0.07319492,-0.98745078,0.9999995439612411,0.0,0.0,0.0,-1.3827376499999997,0.7158854499999999,9.669356899999999,31.8
81465.224263334,81465.224149345,0.11398900824133307,42539.0,True,True,-0.13993766,-0.07319492,-0.98745078,0.9999995439612411,0.0,0.0,0.0,-1.3729310000000001,0.7060787999999999,9.6889702,31.8
81465.234601617,81465.234286582,0.31503500940743834,42549.0,True,True,-0.13993766,-0.07319492,-0.98745078,0.9999995439612411,0.0,0.0,0.0,-1.3729310000000001,0.7158854499999999,9.67916355,31.8
81465.24501511,81465.244228807,0.7863030041335151,42559.0,True,True,-0.13993766,-0.07319492,-0.98745078,0.9999995439612411,0.0,0.0,0.0,-1.36312435,0.7158854499999999,9.669356899999999,31.8
81465.255324428,81465.254236112,1.0883159993682057,42569.0,True,True,-0.13993766,-0.07319492,-0.98745078,0.9999995439612411,0.0,0.0,0.0,-1.3729310000000001,0.7158854499999999,9.67916355,31.8
81465.265673462,81465.264217876,1.4555859961546957,42579.0,True,True,-0.13993766,-0.07319492,-0.98745078,0.9999995439612411,0.0,0.0,0.0,-1.3533177,0.7060787999999999,9.67916355,31.8
81465.27607834,81465.274243858,1.8344819982303306,42589.0,True,True,-0.13993766,-0.07319492,-0.98745078,0.9999995439612411,0.0,0.0,0.0,-1.3729310000000001,0.7158854499999999,9.669356899999999,31.9
81465.284376341,81465.284217778,0.15856300888117403,42599.0,True,True,-0.13993766,-0.07319492,-0.98745078,0.9999995439612411,0.0,0.0,0.0,-1.3729310000000001,0.7060787999999999,9.67916355,31.9
81465.294666164,81465.294251755,0.41440900531597435,42609.0,True,True,-0.13993766,-0.07319492,-0.98745078,0.9999995439612411,0.0,0.0,0.0,-1.3827376499999997,0.7158854499999999,9.67916355,31.8
81465.305043906,81465.304168583,0.8753230067668483,42619.0,True,True,-0.13993766,-0.07319492,-0.98745078,0.9999995439612411,0.0,0.0,0.0,-1.3533177,0.7256921,9.669356899999999,31.8
81465.315424034,81465.314186706,1.2373279896564782,42629.0,True,True,-0.13993766,-0.07319492,-0.98745078,0.9999995439612411,0.0,0.0,0.0,-1.3827376499999997,0.7158854499999999,9.67916355,31.8
81465.325737536,81465.324228363,1.509173001977615,42639.0,True,True,-0.13993766,-0.07319492,-0.98745078,0.9999995439612411,0.0,0.0,0.0,-1.36312435,0.7158854499999999,9.67916355,31.8
81465.336125809,81465.334237637,1.8881720025092363,42649.0,True,True,-0.13993766,-0.07319492,-0.98745078,0.9999995439612411,0.0,0.0,0.0,-1.3729310000000001,0.7158854499999999,9.669356899999999,31.8
81465.344422485,81465.344174463,0.24802199914120138,42659.0,True,True,-0.13993766,-0.07319492,-0.98745078,0.9999995439612411,0.0,0.0,0.0,-1.3729310000000001,0.7158854499999999,9.6889702,31.8
81465.354736941,81465.354231799,0.5051419866504148,42669.0,True,True,-0.13993766,-0.07319492,-0.98745078,0.9999995439612411,0.0,0.0,0.0,-1.36312435,0.7158854499999999,9.669356899999999,31.8
81465.365115078,81465.364218186,0.8968920010374859,42679.0,True,True,-0.13993766,-0.07319492,-0.98745078,0.9999995439612411,0.0,0.0,0.0,-1.3729310000000001,0.7158854499999999,9.669356899999999,31.8
81465.375479174,81465.374190733,1.2884410098195076,42689.0,True,True,-0.13993766,-0.07319492,-0.98745078,0.9999995439612411,0.0,0.0,0.0,-1.36312435,0.7158854499999999,9.67916355,31.8
81465.385819062,81465.384190927,1.6281349962810054,42699.0,True,True,-0.13993766,-0.07319492,-0.98745078,0.9999995439612411,0.0,0.0,0.0,-1.36312435,0.7256921,9.669356899999999,31.8
81465.396207522,81465.394213213,1.9943090010201558,42709.0,True,True,-0.13993766,-0.07319492,-0.98745078,0.9999995439612411,0.0,0.0,0.0,-1.36312435,0.7158854499999999,9.67916355,31.8
81465.404478355,81465.404179064,0.2992910012835637,42719.0,True,True,-0.13993766,-0.07319492,-0.98745078,0.9999995439612411,0.0,0.0,0.0,-1.3729310000000001,0.7158854499999999,9.669356899999999,31.9
81465.414806438,81465.414251353,0.555085003725253,42729.0,True,True,-0.13993766,-0.07319492,-0.98745078,0.9999995439612411,0.0,0.0,0.0,-1.3729310000000001,0.7256921,9.6889702,31.8
81465.42519375,81465.424258097,0.9356529917567968,42739.0,True,True,-0.13993766,-0.07319492,-0.98745078,0.9999995439612411,0.0,0.0,0.0,-1.3729310000000001,0.7256921,9.669356899999999,31.8
81465.435533881,81465.434182552,1.3513290032278746,42749.0,True,True,-0.13993766,-0.07319492,-0.98745078,0.9999995439612411,0.0,0.0,0.0,-1.36312435,0.7060787999999999,9.67916355,31.8
81465.445868692,81465.444192002,1.6766899934737012,42759.0,True,True,-0.13993766,-0.07319492,-0.98745078,0.9999995439612411,0.0,0.0,0.0,-1.3729310000000001,0.7158854499999999,9.669356899999999,31.8
81465.456249551,81465.454224862,2.024689005338587,42769.0,True,True,-0.13993766,-0.07319492,-0.98745078,0.9999995439612411,0.0,0.0,0.0,-1.36312435,0.7060787999999999,9.67916355,31.8
81465.464509209,81465.464178509,0.33070000063162297,42779.0,True,True,-0.13993766,-0.07319492,-0.98745078,0.9999995439612411,0.0,0.0,0.0,-1.36312435,0.7158854499999999,9.67916355,31.8
81465.474848435,81465.474211159,0.6372759962687269,42789.0,True,True,-0.13993766,-0.07319492,-0.98745078,0.9999995439612411,0.0,0.0,0.0,-1.3827376499999997,0.7158854499999999,9.67916355,31.8
81465.485223307,81465.48429657,0.926737004192546,42799.0,True,True,-0.13993766,-0.07319492,-0.98745078,0.9999995439612411,0.0,0.0,0.0,-1.3729310000000001,0.7158854499999999,9.669356899999999,31.8
81465.495573394,81465.494203589,1.3698050024686381,42809.0,True,True,-0.13993766,-0.07319492,-0.98745078,0.9999995439612411,0.0,0.0,0.0,-1.3729310000000001,0.7158854499999999,9.67916355,31.8
81465.505952148,81465.504157081,1.7950670007849112,42819.0,True,True,-0.13993766,-0.07319492,-0.98745078,0.9999995439612411,0.0,0.0,0.0,-1.3729310000000001,0.7158854499999999,9.6889702,31.9
81465.514264263,81465.514211074,0.05318899638950825,42829.0,True,True,-0.13993766,-0.07319492,-0.98745078,0.9999995439612411,0.0,0.0,0.0,-1.3729310000000001,0.7158854499999999,9.67916355,31.9
81465.524637697,81465.524218358,0.4193390050204471,42839.0,True,True,-0.13993766,-0.07319492,-0.98745078,0.9999995439612411,0.0,0.0,0.0,-1.3729310000000001,0.7158854499999999,9.67916355,31.9
81465.535042144,81465.534173111,0.8690329996170476,42849.0,True,True,-0.13993766,-0.07319492,-0.98745078,0.9999995439612411,0.0,0.0,0.0,-1.3729310000000001,0.7060787999999999,9.67916355,31.9
81465.545459579,81465.544214767,1.2448120105545968,42859.0,True,True,-0.13993766,-0.07319492,-0.98745078,0.9999995439612411,0.0,0.0,0.0,-1.3729310000000001,0.7158854499999999,9.67916355,31.8
81465.55588205,81465.554207009,1.675040999543853,42869.0,True,True,-0.13993766,-0.07319492,-0.98745078,0.9999995439612411,0.0,0.0,0.0,-1.36312435,0.7158854499999999,9.67916355,31.8
81465.564205508,81465.564193056,0.012452001101337373,42879.0,True,True,-0.13993766,-0.07319492,-0.98745078,0.9999995439612411,0.0,0.0,0.0,-1.3729310000000001,0.7158854499999999,9.67916355,31.8
81465.574496658,81465.574239646,0.2570119977463037,42889.0,True,True,-0.13993766,-0.07319492,-0.98745078,0.9999995439612411,0.0,0.0,0.0,-1.36312435,0.7256921,9.669356899999999,31.8
81465.584822147,81465.584330204,0.49194299208465964,42899.0,True,True,-0.13993766,-0.07319492,-0.98745078,0.9999995439612411,0.0,0.0,0.0,-1.3533177,0.7256921,9.6889702,31.8
81465.595236848,81465.594312307,0.9245410037692636,42909.0,True,True,-0.13993766,-0.07319492,-0.98745078,0.9999995439612411,0.0,0.0,0.0,-1.3827376499999997,0.73549875,9.669356899999999,31.9
81465.605693789,81465.604201611,1.4921779948053882,42919.0,True,True,-0.13993766,-0.07319492,-0.98745078,0.9999995439612411,0.0,0.0,0.0,-1.3729310000000001,0.7158854499999999,9.67916355,31.9
81465.616102814,81465.614191535,1.9112790032522753,42929.0,True,True,-0.13993766,-0.07319492,-0.98745078,0.9999995439612411,0.0,0.0,0.0,-1.36312435,0.7060787999999999,9.6889702,31.9
81465.624364109,81465.624186383,0.1777260040398687,42939.0,True,True,-0.13993766,-0.07319492,-0.98745078,0.9999995439612411,0.0,0.0,0.0,-1.36312435,0.7158854499999999,9.669356899999999,31.9
81465.634701853,81465.63423561,0.4662430001189932,42949.0,True,True,-0.13993766,-0.07319492,-0.98745078,0.9999995439612411,0.0,0.0,0.0,-1.3729310000000001,0.7158854499999999,9.67916355,31.9
81465.644992223,81465.644187953,0.8042699919315055,42959.0,True,True,-0.13993766,-0.07319492,-0.98745078,0.9999995439612411,0.0,0.0,0.0,-1.36312435,0.7158854499999999,9.67916355,31.9
81465.655322863,81465.654226808,1.0960549989249557,42969.0,True,True,-0.13993766,-0.07319492,-0.98745078,0.9999995439612411,0.0,0.0,0.0,-1.3729310000000001,0.7158854499999999,9.67916355,31.9
81465.665643949,81465.664199441,1.444508001441136,42979.0,True,True,-0.13993766,-0.07319492,-0.98745078,0.9999995439612411,0.0,0.0,0.0,-1.36312435,0.7060787999999999,9.67916355,31.9
81465.676044081,81465.674233783,1.8102980102412403,42989.0,True,True,-0.13993766,-0.07319492,-0.98745078,0.9999995439612411,0.0,0.0,0.0,-1.3729310000000001,0.7158854499999999,9.67916355,31.9
81465.684361425,81465.684256591,0.10483399091754109,42999.0,True,True,-0.13993766,-0.07319492,-0.98745078,0.9999995439612411,0.0,0.0,0.0,-1.3729310000000001,0.7060787999999999,9.6889702,31.9
81465.694716295,81465.694254295,0.4619999963324517,43009.0,True,True,-0.13993766,-0.07319492,-0.98745078,0.9999995439612411,0.0,0.0,0.0,-1.3729310000000001,0.7158854499999999,9.67916355,31.9
81465.705124043,81465.704196007,0.9280359954573214,43019.0,True,True,-0.13993766,-0.07319492,-0.98745078,0.9999995439612411,0.0,0.0,0.0,-1.36312435,0.7158854499999999,9.669356899999999,31.9
81465.715430601,81465.714200577,1.230024005053565,43029.0,True,True,-0.13993766,-0.07319492,-0.98745078,0.9999995439612411,0.0,0.0,0.0,-1.3729310000000001,0.7158854499999999,9.67916355,31.8
81465.725822648,81465.724159345,1.6633030027151108,43039.0,True,True,-0.13993766,-0.07319492,-0.98745078,0.9999995439612411,0.0,0.0,0.0,-1.3827376499999997,0.7158854499999999,9.69877685,31.9
81465.736191087,81465.734252744,1.9383429898880422,43049.0,True,True,-0.13993766,-0.07319492,-0.98745078,0.9999995439612411,0.0,0.0,0.0,-1.36312435,0.7158854499999999,9.67916355,31.9
81465.744425828,81465.744301186,0.12464199971873313,43059.0,True,True,-0.13993766,-0.07319492,-0.98745078,0.9999995439612411,0.0,0.0,0.0,-1.36312435,0.7158854499999999,9.669356899999999,31.8
81465.754845799,81465.754272526,0.5732730060117319,43069.0,True,True,-0.13993766,-0.07319492,-0.98745078,0.9999995439612411,0.0,0.0,0.0,-1.3729310000000001,0.7158854499999999,9.67916355,31.9
81465.765253807,81465.764192887,1.0609199962345883,43079.0,True,True,-0.13993766,-0.07319492,-0.98745078,0.9999995439612411,0.0,0.0,0.0,-1.3729310000000001,0.7256921,9.67916355,31.8
81465.775600145,81465.7742715,1.3286449975566939,43089.0,True,True,-0.13993766,-0.07319492,-0.98745078,0.9999995439612411,0.0,0.0,0.0,-1.3533177,0.7158854499999999,9.67916355,31.8
81465.785993412,81465.784207636,1.7857760103652254,43099.0,True,True,-0.13993766,-0.07319492,-0.98745078,0.9999995439612411,0.0,0.0,0.0,-1.36312435,0.7158854499999999,9.67916355,31.8
81465.794263702,81465.794196367,0.06733500049449503,43109.0,True,True,-0.13993766,-0.07319492,-0.98745078,0.9999995439612411,0.0,0.0,0.0,-1.36312435,0.7256921,9.67916355,31.8
81465.804578348,81465.804242808,0.33554001129232347,43119.0,True,True,-0.13993766,-0.07319492,-0.98745078,0.9999995439612411,0.0,0.0,0.0,-1.3729310000000001,0.7256921,9.669356899999999,31.8
81465.814971484,81465.814170783,0.8007010037545115,43129.0,True,True,-0.13993766,-0.07319492,-0.98745078,0.9999995439612411,0.0,0.0,0.0,-1.3729310000000001,0.7158854499999999,9.67916355,31.8
81465.825314498,81465.824197287,1.117210995289497,43139.0,True,True,-0.13993766,-0.07319492,-0.98745078,0.9999995439612411,0.0,0.0,0.0,-1.3729310000000001,0.7256921,9.67916355,31.8
81465.835644508,81465.834247599,1.3969089923193678,43149.0,True,True,-0.13993766,-0.07319492,-0.98745078,0.9999995439612411,0.0,0.0,0.0,-1.3827376499999997,0.7158854499999999,9.669356899999999,31.8
81465.846013538,81465.844172742,1.8407960014883429,43159.0,True,True,-0.13993766,-0.07319492,-0.98745078,0.9999995439612411,0.0,0.0,0.0,-1.3729310000000001,0.7158854499999999,9.6889702,31.8
81465.854275649,81465.854223801,0.051848008297383785,43169.0,True,True,-0.13993766,-0.07319492,-0.98745078,0.9999995439612411,0.0,0.0,0.0,-1.36312435,0.7158854499999999,9.67916355,31.8
81465.86461085,81465.864214937,0.39591299719177186,43179.0,True,True,-0.13993766,-0.07319492,-0.98745078,0.9999995439612411,0.0,0.0,0.0,-1.3729310000000001,0.7256921,9.6889702,31.8
81465.87501392,81465.87417472,0.8392000017920509,43189.0,True,True,-0.13993766,-0.07319492,-0.98745078,0.9999995439612411,0.0,0.0,0.0,-1.3827376499999997,0.7158854499999999,9.659550249999999,31.9
81465.885377558,81465.884283384,1.0941740038106218,43199.0,True,True,-0.13993766,-0.07319492,-0.98745078,0.9999995439612411,0.0,0.0,0.0,-1.3729310000000001,0.7158854499999999,9.67916355,31.8
81465.89566922,81465.894190701,1.4785189996473491,43209.0,True,True,-0.13993766,-0.07319492,-0.98745078,0.9999995439612411,0.0,0.0,0.0,-1.36312435,0.7158854499999999,9.67916355,31.8
81465.906100136,81465.904227389,1.872747001470998,43219.0,True,True,-0.13993766,-0.07319492,-0.98745078,0.9999995439612411,0.0,0.0,0.0,-1.3729310000000001,0.7158854499999999,9.67916355,31.9
81465.914374162,81465.914213423,0.1607390004210174,43229.0,True,True,-0.13993766,-0.07319492,-0.98745078,0.9999995439612411,0.0,0.0,0.0,-1.36312435,0.7158854499999999,9.67916355,31.9
81465.924682259,81465.924157382,0.5248770030448213,43239.0,True,True,-0.13993766,-0.07319492,-0.98745078,0.9999995439612411,0.0,0.0,0.0,-1.3729310000000001,0.7158854499999999,9.669356899999999,31.8
81465.935074251,81465.934207096,0.8671550021972507,43249.0,True,True,-0.13993766,-0.07319492,-0.98745078,0.9999995439612411,0.0,0.0,0.0,-1.3729310000000001,0.7158854499999999,9.6889702,31.8
81465.945426502,81465.944262946,1.163556007668376,43259.0,True,True,-0.13993766,-0.07319492,-0.98745078,0.9999995439612411,0.0,0.0,0.0,-1.36312435,0.7158854499999999,9.67916355,31.9
81465.95571719,81465.954213377,1.503812993178144,43269.0,True,True,-0.13993766,-0.07319492,-0.98745078,0.9999995439612411,0.0,0.0,0.0,-1.3729310000000001,0.7158854499999999,9.6889702,31.9
81465.966125837,81465.964214574,1.911262996145524,43279.0,True,True,-0.13993766,-0.07319492,-0.98745078,0.9999995439612411,0.0,0.0,0.0,-1.3729310000000001,0.7256921,9.67916355,31.8
81465.974394299,81465.974249412,0.14488700253423303,43289.0,True,True,-0.13993766,-0.07319492,-0.98745078,0.9999995439612411,0.0,0.0,0.0,-1.3729310000000001,0.7158854499999999,9.67916355,31.9
81465.984730788,81465.984206464,0.5243240011623129,43299.0,True,True,-0.13993766,-0.07319492,-0.98745078,0.9999995439612411,0.0,0.0,0.0,-1.3729310000000001,0.7158854499999999,9.67916355,31.9
81465.995168917,81465.994196206,0.9727110009407625,43309.0,True,True,-0.13993766,-0.07319492,-0.98745078,0.9999995439612411,0.0,0.0,0.0,-1.3827376499999997,0.7158854499999999,9.67916355,31.9
81466.005547856,81466.004282562,1.2652939913095906,43319.0,True,True,-0.13993766,-0.07319492,-0.98745078,0.9999995439612411,0.0,0.0,0.0,-1.36312435,0.7158854499999999,9.67916355,31.9
81466.015907721,81466.014230681,1.6770399961387739,43329.0,True,True,-0.13993766,-0.07319492,-0.98745078,0.9999995439612411,0.0,0.0,0.0,-1.3729310000000001,0.7158854499999999,9.67916355,31.8
81466.024231106,81466.024213779,0.017326994566246867,43339.0,True,True,-0.13993766,-0.07319492,-0.98745078,0.9999995439612411,0.0,0.0,0.0,-1.3729310000000001,0.7158854499999999,9.67916355,31.8
81466.034574814,81466.034397771,0.17704299534671009,43349.0,True,True,-0.13993766,-0.07319492,-0.98745078,0.9999995439612411,0.0,0.0,0.0,-1.36312435,0.7158854499999999,9.669356899999999,31.8
81466.044952602,81466.044345899,0.606702989898622,43359.0,True,True,-0.13993766,-0.07319492,-0.98745078,0.9999995439612411,0.0,0.0,0.0,-1.3729310000000001,0.7158854499999999,9.67916355,31.9
81466.055327643,81466.054320258,1.0073849989566952,43369.0,True,True,-0.13993766,-0.07319492,-0.98745078,0.9999995439612411,0.0,0.0,0.0,-1.36312435,0.7158854499999999,9.67916355,31.9
81466.065618196,81466.064290353,1.3278429978527129,43379.0,True,True,-0.13993766,-0.07319492,-0.98745078,0.9999995439612411,0.0,0.0,0.0,-1.3729310000000001,0.7158854499999999,9.67916355,31.9
81466.076017759,81466.074258013,1.7597459955140948,43389.0,True,True,-0.13993766,-0.07319492,-0.98745078,0.9999995439612411,0.0,0.0,0.0,-1.36312435,0.7158854499999999,9.669356899999999,31.8
81466.084283921,81466.084272573,0.011347990948706865,43399.0,True,True,-0.13993766,-0.07319492,-0.98745078,0.9999995439612411,0.0,0.0,0.0,-1.3827376499999997,0.7256921,9.669356899999999,31.8
81466.094626611,81466.094201674,0.42493699584156275,43409.0,True,True,-0.13993766,-0.07319492,-0.98745078,0.9999995439612411,0.0,0.0,0.0,-1.3729310000000001,0.7256921,9.669356899999999,31.8
81466.105067238,81466.104419682,0.6475559930549935,43419.0,True,True,-0.13993766,-0.07319492,-0.98745078,0.9999995439612411,0.0,0.0,0.0,-1.3827376499999997,0.7256921,9.669356899999999,31.8
81466.115392493,81466.114168264,1.2242289958521724,43429.0,True,True,-0.13993766,-0.07319492,-0.98745078,0.9999995439612411,0.0,0.0,0.0,-1.3729310000000001,0.7256921,9.67916355,31.9
81466.125733262,81466.124223493,1.5097690047696233,43439.0,True,True,-0.13993766,-0.07319492,-0.98745078,0.9999995439612411,0.0,0.0,0.0,-1.36312435,0.7256921,9.67916355,31.9
81466.136127595,81466.134229886,1.897709007607773,43449.0,True,True,-0.13993766,-0.07319492,-0.98745078,0.9999995439612411,0.0,0.0,0.0,-1.3533177,0.7158854499999999,9.669356899999999,31.9
81466.144380115,81466.144289945,0.09016999683808535,43459.0,True,True,-0.13993766,-0.07319492,-0.98745078,0.9999995439612411,0.0,0.0,0.0,-1.3729310000000001,0.7158854499999999,9.67916355,31.9
81466.154705472,81466.154243876,0.4615960060618818,43469.0,True,True,-0.13993766,-0.07319492,-0.98745078,0.9999995439612411,0.0,0.0,0.0,-1.36312435,0.7158854499999999,9.67916355,31.8
81466.165136096,81466.164426291,0.7098049973137677,43479.0,True,True,-0.13993766,-0.07319492,-0.98745078,0.9999995439612411,0.0,0.0,0.0,-1.36312435,0.7060787999999999,9.67916355,31.8
81466.175432534,81466.174279657,1.1528769973665476,43489.0,True,True,-0.13993766,-0.07319492,-0.98745078,0.9999995439612411,0.0,0.0,0.0,-1.3729310000000001,0.7158854499999999,9.67916355,31.8
81466.185723096,81466.184380123,1.3429730024654418,43499.0,True,True,-0.13993766,-0.07319492,-0.98745078,0.9999995439612411,0.0,0.0,0.0,-1.3533177,0.7060787999999999,9.669356899999999,31.8
81466.196227486,81466.194438417,1.789068992366083,43509.0,True,True,-0.13993766,-0.07319492,-0.98745078,0.9999995439612411,0.0,0.0,0.0,-1.36312435,0.7060787999999999,9.669356899999999,31.8
81466.204503583,81466.204236221,0.2673619892448187,43519.0,True,True,-0.13993766,-0.07319492,-0.98745078,0.9999995439612411,0.0,0.0,0.0,-1.3729310000000001,0.7158854499999999,9.6889702,31.8
81466.214896715,81466.214355658,0.5410570011008531,43529.0,True,True,-0.13993766,-0.07319492,-0.98745078,0.9999995439612411,0.0,0.0,0.0,-1.36312435,0.7158854499999999,9.669356899999999,31.8
81466.225279835,81466.224312321,0.9675139881437644,43539.0,True,True,-0.13993766,-0.07319492,-0.98745078,0.9999995439612411,0.0,0.0,0.0,-1.3533177,0.7060787999999999,9.67916355,31.8
81466.235579885,81466.234240425,1.3394600100582466,43549.0,True,True,-0.13993766,-0.07319492,-0.98745078,0.9999995439612411,0.0,0.0,0.0,-1.36312435,0.7256921,9.6889702,31.8
81466.245945232,81466.244224074,1.7211579979630187,43559.0,True,True,-0.13993766,-0.07319492,-0.98745078,0.9999995439612411,0.0,0.0,0.0,-1.3729310000000001,0.7256921,9.67916355,31.8
81466.256318611,81466.254322171,1.9964400125900283,43569.0,True,True,-0.13993766,-0.07319492,-0.98745078,0.9999995439612411,0.0,0.0,0.0,-1.3729310000000001,0.7158854499999999,9.67916355,31.8
81466.264577075,81466.264336744,0.24033099180087447,43579.0,True,True,-0.13993766,-0.07319492,-0.98745078,0.9999995439612411,0.0,0.0,0.0,-1.3827376499999997,0.6962721499999999,9.669356899999999,31.8
81466.275013875,81466.27435478,0.6590949924429879,43589.0,True,True,-0.13993766,-0.07319492,-0.98745078,0.9999995439612411,0.0,0.0,0.0,-1.36312435,0.7158854499999999,9.67916355,31.8
81466.285394733,81466.284270136,1.1245969944866374,43599.0,True,True,-0.13993766,-0.07319492,-0.98745078,0.9999995439612411,0.0,0.0,0.0,-1.3729310000000001,0.6962721499999999,9.67916355,31.8
81466.29570352,81466.294247469,1.456050988053903,43609.0,True,True,-0.13993766,-0.07319492,-0.98745078,0.9999995439612411,0.0,0.0,0.0,-1.3827376499999997,0.7256921,9.67916355,31.8
81466.30460819,81466.304595674,0.01251600042451173,43619.0,True,True,-0.13993766,-0.07319492,-0.98745078,0.9999995439612411,0.0,0.0,0.0,-1.3729310000000001,0.7158854499999999,9.67916355,31.9
81466.314926083,81466.314193354,0.7327289931708947,43629.0,True,True,-0.13993766,-0.07319492,-0.98745078,0.9999995439612411,0.0,0.0,0.0,-1.3729310000000001,0.7060787999999999,9.67916355,31.9
81466.325320444,81466.324275582,1.0448620014358312,43639.0,True,True,-0.13993766,-0.07319492,-0.98745078,0.9999995439612411,0.0,0.0,0.0,-1.3827376499999997,0.6962721499999999,9.67916355,31.9
81466.335623378,81466.33419251,1.4308680110843852,43649.0,True,True,-0.13993766,-0.07319492,-0.98745078,0.9999995439612411,0.0,0.0,0.0,-1.3729310000000001,0.7158854499999999,9.67916355,31.8
81466.34598215,81466.344217402,1.7647479980951175,43659.0,True,True,-0.13993766,-0.07319492,-0.98745078,0.9999995439612411,0.0,0.0,0.0,-1.36312435,0.7158854499999999,9.669356899999999,31.8
81466.354304785,81466.354189867,0.11491800250951201,43669.0,True,True,-0.13993766,-0.07319492,-0.98745078,0.9999995439612411,0.0,0.0,0.0,-1.3729310000000001,0.7256921,9.6889702,31.8
81466.364636639,81466.364246061,0.39057800313457847,43679.0,True,True,-0.13993766,-0.07319492,-0.98745078,0.9999995439612411,0.0,0.0,0.0,-1.36312435,0.7158854499999999,9.67916355,31.9
81466.37493765,81466.374264377,0.673273010761477,43689.0,True,True,-0.13993766,-0.07319492,-0.98745078,0.9999995439612411,0.0,0.0,0.0,-1.3729310000000001,0.7158854499999999,9.6889702,31.8
81466.385254127,81466.384239319,1.0148080036742613,43699.0,True,True,-0.13993766,-0.07319492,-0.98745078,0.9999995439612411,0.0,0.0,0.0,-1.3729310000000001,0.7158854499999999,9.67916355,31.8
81466.395578458,81466.394238524,1.3399340095929801,43709.0,True,True,-0.13993766,-0.07319492,-0.98745078,0.9999995439612411,0.0,0.0,0.0,-1.3533177,0.7060787999999999,9.67916355,31.9
81466.406019828,81466.404239511,1.7803170048864558,43719.0,True,True,-0.13993766,-0.07319492,-0.98745078,0.9999995439612411,0.0,0.0,0.0,-1.3729310000000001,0.7256921,9.67916355,31.9
81466.414363806,81466.41434727,0.01653601066209376,43729.0,True,True,-0.13993766,-0.07319492,-0.98745078,0.9999995439612411,0.0,0.0,0.0,-1.3827376499999997,0.7256921,9.669356899999999,31.9
81466.424671626,81466.424258539,0.4130869929213077,43739.0,True,True,-0.13993766,-0.07319492,-0.98745078,0.9999995439612411,0.0,0.0,0.0,-1.36312435,0.7256921,9.67916355,31.8
81466.43506895,81466.434232955,0.835995000670664,43749.0,True,True,-0.13993766,-0.07319492,-0.98745078,0.9999995439612411,0.0,0.0,0.0,-1.3729310000000001,0.7158854499999999,9.6889702,31.8
81466.445404672,81466.444253048,1.151624004705809,43759.0,True,True,-0.13993766,-0.07319492,-0.98745078,0.9999995439612411,0.0,0.0,0.0,-1.36312435,0.7158854499999999,9.669356899999999,31.8
81466.455721627,81466.454203166,1.518461009254679,43769.0,True,True,-0.13993766,-0.07319492,-0.98745078,0.9999995439612411,0.0,0.0,0.0,-1.3827376499999997,0.7158854499999999,9.67916355,31.8
81466.46612369,81466.464265268,1.858421994256787,43779.0,True,True,-0.13993766,-0.07319492,-0.98745078,0.9999995439612411,0.0,0.0,0.0,-1.3729310000000001,0.7158854499999999,9.67916355,31.8
81466.474388399,81466.474288993,0.0994059955701232,43789.0,True,True,-0.13993766,-0.07319492,-0.98745078,0.9999995439612411,0.0,0.0,0.0,-1.3729310000000001,0.7158854499999999,9.669356899999999,31.8
81466.484671204,81466.484183162,0.4880420019617304,43799.0,True,True,-0.13993766,-0.07319492,-0.98745078,0.9999995439612411,0.0,0.0,0.0,-1.3827376499999997,0.7158854499999999,9.6889702,31.9
81466.495068458,81466.494214987,0.8534709922969341,43809.0,True,True,-0.13993766,-0.07319492,-0.98745078,0.9999995439612411,0.0,0.0,0.0,-1.3729310000000001,0.7158854499999999,9.669356899999999,31.8
81466.505406465,81466.504226421,1.1800439970102161,43819.0,True,True,-0.13993766,-0.07319492,-0.98745078,0.9999995439612411,0.0,0.0,0.0,-1.3729310000000001,0.7158854499999999,9.67916355,31.8
81466.515802698,81466.514248782,1.5539160085609183,43829.0,True,True,-0.13993766,-0.07319492,-0.98745078,0.9999995439612411,0.0,0.0,0.0,-1.3729310000000001,0.7158854499999999,9.67916355,31.8
81466.52619824,81466.524253842,1.94439799815882,43839.0,True,True,-0.13993766,-0.07319492,-0.98745078,0.9999995439612411,0.0,0.0,0.0,-1.3729310000000001,0.7158854499999999,9.67916355,31.8
81466.534423578,81466.534170641,0.2529370103729889,43849.0,True,True,-0.13993766,-0.07319492,-0.98745078,0.9999995439612411,0.0,0.0,0.0,-1.3729310000000001,0.7158854499999999,9.6889702,31.8
81466.544789719,81466.544217728,0.571990996832028,43859.0,True,True,-0.13993766,-0.07319492,-0.98745078,0.9999995439612411,0.0,0.0,0.0,-1.3729310000000001,0.7158854499999999,9.669356899999999,31.9
81466.55521014,81466.554157132,1.0530079889576882,43869.0,True,True,-0.13993766,-0.07319492,-0.98745078,0.9999995439612411,0.0,0.0,0.0,-1.36312435,0.7158854499999999,9.669356899999999,31.8
81466.565552725,81466.564254408,1.298317001783289,43879.0,True,True,-0.13993766,-0.07319492,-0.98745078,0.9999995439612411,0.0,0.0,0.0,-1.3729310000000001,0.7158854499999999,9.6889702,31.9
81466.575928477,81466.574206807,1.7216700071003288,43889.0,True,True,-0.13993766,-0.07319492,-0.98745078,0.9999995439612411,0.0,0.0,0.0,-1.3729310000000001,0.7158854499999999,9.67916355,31.9
81466.584207562,81466.584191713,0.01584900019224733,43899.0,True,True,-0.13993766,-0.07319492,-0.98745078,0.9999995439612411,0.0,0.0,0.0,-1.3729310000000001,0.7158854499999999,9.69877685,31.9
81466.594564162,81466.594170385,0.39377700886689126,43909.0,True,True,-0.13993766,-0.07319492,-0.98745078,0.9999995439612411,0.0,0.0,0.0,-1.3729310000000001,0.7158854499999999,9.67916355,31.9
81466.604988731,81466.604193491,0.7952399901114404,43919.0,True,True,-0.13993766,-0.07319492,-0.98745078,0.9999995439612411,0.0,0.0,0.0,-1.3729310000000001,0.7158854499999999,9.669356899999999,31.8
81466.615305211,81466.614167236,1.137975006713532,43929.0,True,True,-0.13993766,-0.07319492,-0.98745078,0.9999995439612411,0.0,0.0,0.0,-1.3729310000000001,0.7256921,9.6889702,31.9
81466.625661856,81466.624207748,1.4541080017806962,43939.0,True,True,-0.13993766,-0.07319492,-0.98745078,0.9999995439612411,0.0,0.0,0.0,-1.3729310000000001,0.7158854499999999,9.669356899999999,31.8
81466.635988142,81466.634221291,1.7668510117800906,43949.0,True,True,-0.13993766,-0.07319492,-0.98745078,0.9999995439612411,0.0,0.0,0.0,-1.36312435,0.7256921,9.67916355,31.8
81466.64424899,81466.64422008,0.028909998945891857,43959.0,True,True,-0.13993766,-0.07319492,-0.98745078,0.9999995439612411,0.0,0.0,0.0,-1.3827376499999997,0.7158854499999999,9.669356899999999,31.9
81466.654538326,81466.654227835,0.31049099925439805,43969.0,True,True,-0.13993766,-0.07319492,-0.98745078,0.9999995439612411,0.0,0.0,0.0,-1.36312435,0.7158854499999999,9.67916355,31.9
81466.664936221,81466.664291789,0.6444320024456829,43979.0,True,True,-0.13993766,-0.07319492,-0.98745078,0.9999995439612411,0.0,0.0,0.0,-1.3729310000000001,0.7256921,9.6889702,31.9
81466.67528746,81466.674245408,1.0420520120533183,43989.0,True,True,-0.13993766,-0.07319492,-0.98745078,0.9999995439612411,0.0,0.0,0.0,-1.36312435,0.7158854499999999,9.669356899999999,31.8
81466.685629076,81466.684223973,1.4051030011614785,43999.0,True,True,-0.13993766,-0.07319492,-0.98745078,0.9999995439612411,0.0,0.0,0.0,-1.3729310000000001,0.7158854499999999,9.659550249999999,31.8
81466.695956308,81466.694215775,1.7405329999746755,44009.0,True,True,-0.13993766,-0.07319492,-0.98745078,0.9999995439612411,0.0,0.0,0.0,-1.3729310000000001,0.7158854499999999,9.67916355,31.8
81466.704229767,81466.704222563,0.007203998393379152,44019.0,True,True,-0.13993766,-0.07319492,-0.98745078,0.9999995439612411,0.0,0.0,0.0,-1.3729310000000001,0.7060787999999999,9.6889702,31.9
81466.714563526,81466.71422727,0.3362559946253896,44029.0,True,True,-0.13993766,-0.07319492,-0.98745078,0.9999995439612411,0.0,0.0,0.0,-1.3827376499999997,0.7158854499999999,9.67916355,31.8
81466.724966079,81466.724296205,0.6698740035062656,44039.0,True,True,-0.13993766,-0.07319492,-0.98745078,0.9999995439612411,0.0,0.0,0.0,-1.3729310000000001,0.7158854499999999,9.669356899999999,31.8
81466.735355419,81466.734183041,1.1723780044121668,44049.0,True,True,-0.13993766,-0.07319492,-0.98745078,0.9999995439612411,0.0,0.0,0.0,-1.3729310000000001,0.7256921,9.6889702,31.8
81466.745656181,81466.744220353,1.4358280022861436,44059.0,True,True,-0.13993766,-0.07319492,-0.98745078,0.9999995439612411,0.0,0.0,0.0,-1.36312435,0.7158854499999999,9.67916355,31.8
81466.756037912,81466.754274655,1.7632569943089038,44069.0,True,True,-0.13993766,-0.07319492,-0.98745078,0.9999995439612411,0.0,0.0,0.0,-1.36312435,0.7158854499999999,9.669356899999999,31.8
81466.764270005,81466.764235931,0.034074007999151945,44079.0,True,True,-0.13993766,-0.07319492,-0.98745078,0.9999995439612411,0.0,0.0,0.0,-1.3729310000000001,0.7158854499999999,9.669356899999999,31.8
81466.774568788,81466.774258916,0.3098719898844138,44089.0,True,True,-0.13993766,-0.07319492,-0.98745078,0.9999995439612411,0.0,0.0,0.0,-1.3729310000000001,0.7256921,9.669356899999999,31.8
81466.78495369,81466.784309497,0.6441930017899722,44099.0,True,True,-0.13993766,-0.07319492,-0.98745078,0.9999995439612411,0.0,0.0,0.0,-1.3729310000000001,0.7158854499999999,9.67916355,31.8
81466.795405299,81466.794413687,0.9916119888657704,44109.0,True,True,-0.13993766,-0.07319492,-0.98745078,0.9999995439612411,0.0,0.0,0.0,-1.3729310000000001,0.7158854499999999,9.669356899999999,31.9
81466.805713216,81466.804249919,1.4632969978265464,44119.0,True,True,-0.13993766,-0.07319492,-0.98745078,0.9999995439612411,0.0,0.0,0.0,-1.3827376499999997,0.7158854499999999,9.669356899999999,31.9
81466.816104812,81466.814229588,1.87522399937734,44129.0,True,True,-0.13993766,-0.07319492,-0.98745078,0.9999995439612411,0.0,0.0,0.0,-1.3729310000000001,0.7158854499999999,9.67916355,31.9
81466.824340192,81466.824238149,0.10204300633631647,44139.0,True,True,-0.13993766,-0.07319492,-0.98745078,0.9999995439612411,0.0,0.0,0.0,-1.3827376499999997,0.7256921,9.669356899999999,31.9
81466.834649353,81466.834288852,0.3605009987950325,44149.0,True,True,-0.13993766,-0.07319492,-0.98745078,0.9999995439612411,0.0,0.0,0.0,-1.3827376499999997,0.7158854499999999,9.67916355,31.9
81466.844973335,81466.844216189,0.7571460009785369,44159.0,True,True,-0.13993766,-0.07319492,-0.98745078,0.9999995439612411,0.0,0.0,0.0,-1.3533177,0.7158854499999999,9.67916355,31.8
81466.855377508,81466.854343003,1.0345050104660913,44169.0,True,True,-0.13993766,-0.07319492,-0.98745078,0.9999995439612411,0.0,0.0,0.0,-1.3827376499999997,0.7256921,9.67916355,31.8
81466.865684531,81466.864242256,1.442275010049343,44179.0,True,True,-0.13993766,-0.07319492,-0.98745078,0.9999995439612411,0.0,0.0,0.0,-1.3729310000000001,0.7158854499999999,9.6889702,31.8
81466.876111036,81466.874269477,1.8415590020595118,44189.0,True,True,-0.13993766,-0.07319492,-0.98745078,0.9999995439612411,0.0,0.0,0.0,-1.36312435,0.7158854499999999,9.67916355,31.8
81466.884442081,81466.884274187,0.16789400251582265,44199.0,True,True,-0.13993766,-0.07319492,-0.98745078,0.9999995439612411,0.0,0.0,0.0,-1.3729310000000001,0.7158854499999999,9.67916355,31.8
81466.89473823,81466.894204263,0.533967002411373,44209.0,True,True,-0.13993766,-0.07319492,-0.98745078,0.9999995439612411,0.0,0.0,0.0,-1.36312435,0.7060787999999999,9.67916355,31.8
81466.90516011,81466.904317903,0.8422070095548406,44219.0,True,True,-0.13993766,-0.07319492,-0.98745078,0.9999995439612411,0.0,0.0,0.0,-1.3729310000000001,0.7158854499999999,9.669356899999999,31.8
81466.915549926,81466.914298647,1.2512789980974048,44229.0,True,True,-0.13993766,-0.07319492,-0.98745078,0.9999995439612411,0.0,0.0,0.0,-1.3827376499999997,0.7256921,9.67916355,31.8
81466.925896563,81466.924317448,1.5791149926371872,44239.0,True,True,-0.13993766,-0.07319492,-0.98745078,0.9999995439612411,0.0,0.0,0.0,-1.3533177,0.7158854499999999,9.67916355,31.8
81466.936226933,81466.934232724,1.9942090002587065,44249.0,True,True,-0.13993766,-0.07319492,-0.98745078,0.9999995439612411,0.0,0.0,0.0,-1.3729310000000001,0.7158854499999999,9.6889702,31.9
81466.944505372,81466.944179952,0.32541999826207757,44259.0,True,True,-0.13993766,-0.07319492,-0.98745078,0.9999995439612411,0.0,0.0,0.0,-1.3729310000000001,0.7158854499999999,9.67916355,31.9
81466.954856102,81466.954454281,0.40182100201491266,44269.0,True,True,-0.13993766,-0.07319492,-0.98745078,0.9999995439612411,0.0,0.0,0.0,-1.36312435,0.7158854499999999,9.67916355,31.9
81466.965183561,81466.964348502,0.835058992379345,44279.0,True,True,-0.13993766,-0.07319492,-0.98745078,0.9999995439612411,0.0,0.0,0.0,-1.36312435,0.7158854499999999,9.669356899999999,31.9
81466.975494234,81466.974279141,1.2150929978815839,44289.0,True,True,-0.13993766,-0.07319492,-0.98745078,0.9999995439612411,0.0,0.0,0.0,-1.3533177,0.7060787999999999,9.669356899999999,31.9
81466.985818469,81466.984329536,1.4889329904690385,44299.0,True,True,-0.13993766,-0.07319492,-0.98745078,0.9999995439612411,0.0,0.0,0.0,-1.36312435,0.7256921,9.67916355,31.9
81466.996212444,81466.994340098,1.872346008894965,44309.0,True,True,-0.13993766,-0.07319492,-0.98745078,0.9999995439612411,0.0,0.0,0.0,-1.36312435,0.7158854499999999,9.669356899999999,31.8
81467.004504265,81467.004271703,0.23256200074683875,44319.0,True,True,-0.13993766,-0.07319492,-0.98745078,0.9999995439612411,0.0,0.0,0.0,-1.36312435,0.7158854499999999,9.67916355,31.8
81467.014797846,81467.014258081,0.5397649947553873,44329.0,True,True,-0.13993766,-0.07319492,-0.98745078,0.9999995439612411,0.0,0.0,0.0,-1.3729310000000001,0.7158854499999999,9.67916355,31.9
81467.025155895,81467.024320314,0.835580998682417,44339.0,True,True,-0.13993766,-0.07319492,-0.98745078,0.9999995439612411,0.0,0.0,0.0,-1.3729310000000001,0.7256921,9.67916355,31.8
81467.03544929,81467.034238335,1.210954986163415,44349.0,True,True,-0.13993766,-0.07319492,-0.98745078,0.9999995439612411,0.0,0.0,0.0,-1.3827376499999997,0.7060787999999999,9.67916355,31.8
81467.045786838,81467.044199645,1.5871930081630126,44359.0,True,True,-0.13993766,-0.07319492,-0.98745078,0.9999995439612411,0.0,0.0,0.0,-1.3729310000000001,0.7158854499999999,9.67916355,31.8
81467.056168204,81467.054302206,1.8659979978110641,44369.0,True,True,-0.13993766,-0.07319492,-0.98745078,0.9999995439612411,0.0,0.0,0.0,-1.3533177,0.7158854499999999,9.6889702,31.9
81467.064407656,81467.064193804,0.2138519921572879,44379.0,True,True,-0.13993766,-0.07319492,-0.98745078,0.9999995439612411,0.0,0.0,0.0,-1.36312435,0.7158854499999999,9.659550249999999,31.9
81467.074724818,81467.074222499,0.502319002407603,44389.0,True,True,-0.13993766,-0.07319492,-0.98745078,0.9999995439612411,0.0,0.0,0.0,-1.3827376499999997,0.7256921,9.6889702,31.9
81467.085120919,81467.084297501,0.823417998617515,44399.0,True,True,-0.13993766,-0.07319492,-0.98745078,0.9999995439612411,0.0,0.0,0.0,-1.36312435,0.7060787999999999,9.669356899999999,31.9
81467.095426258,81467.094258493,1.1677650036290288,44409.0,True,True,-0.13993766,-0.07319492,-0.98745078,0.9999995439612411,0.0,0.0,0.0,-1.3729310000000001,0.7256921,9.6889702,31.8
81467.105733139,81467.104214431,1.5187079989118502,44419.0,True,True,-0.13993766,-0.07319492,-0.98745078,0.9999995439612411,0.0,0.0,0.0,-1.3729310000000001,0.7158854499999999,9.6889702,31.8
81467.116134746,81467.114246972,1.8877739930758253,44429.0,True,True,-0.13993766,-0.07319492,-0.98745078,0.9999995439612411,0.0,0.0,0.0,-1.3827376499999997,0.7158854499999999,9.67916355,31.8
81467.124443233,81467.124274227,0.16900600166991353,44439.0,True,True,-0.13993766,-0.07319492,-0.98745078,0.9999995439612411,0.0,0.0,0.0,-1.3729310000000001,0.7256921,9.669356899999999,31.9
81467.134758881,81467.134224611,0.534270002390258,44449.0,True,True,-0.13993766,-0.07319492,-0.98745078,0.9999995439612411,0.0,0.0,0.0,-1.3729310000000001,0.7158854499999999,9.67916355,31.9
81467.145166352,81467.144244282,0.9220700012519956,44459.0,True,True,-0.13993766,-0.07319492,-0.98745078,0.9999995439612411,0.0,0.0,0.0,-1.3533177,0.7060787999999999,9.67916355,31.8
81467.155497771,81467.154229726,1.268045001779683,44469.0,True,True,-0.13993766,-0.07319492,-0.98745078,0.9999995439612411,0.0,0.0,0.0,-1.36312435,0.7158854499999999,9.669356899999999,31.9
81467.165853939,81467.164228873,1.6250659973593429,44479.0,True,True,-0.13993766,-0.07319492,-0.98745078,0.9999995439612411,0.0,0.0,0.0,-1.36312435,0.7158854499999999,9.669356899999999,31.8
81467.176307959,81467.174445195,1.862763994722627,44489.0,True,True,-0.13993766,-0.07319492,-0.98745078,0.9999995439612411,0.0,0.0,0.0,-1.3729310000000001,0.7158854499999999,9.67916355,31.9
81467.184554908,81467.184304081,0.2508269972167909,44499.0,True,True,-0.13993766,-0.07319492,-0.98745078,0.9999995439612411,0.0,0.0,0.0,-1.3729310000000001,0.7158854499999999,9.67916355,31.9
81467.194875649,81467.194246585,0.629064001259394,44509.0,True,True,-0.13993766,-0.07319492,-0.98745078,0.9999995439612411,0.0,0.0,0.0,-1.3925442999999997,0.7158854499999999,9.67916355,31.9
81467.20521731,81467.204243728,0.9735819912748411,44519.0,True,True,-0.13993766,-0.07319492,-0.98745078,0.9999995439612411,0.0,0.0,0.0,-1.36312435,0.7256921,9.6889702,31.9
81467.215542834,81467.214240668,1.3021659979131073,44529.0,True,True,-0.13993766,-0.07319492,-0.98745078,0.9999995439612411,0.0,0.0,0.0,-1.3827376499999997,0.7256921,9.67916355,31.9
81467.225843852,81467.224215632,1.6282199940178543,44539.0,True,True,-0.13993766,-0.07319492,-0.98745078,0.9999995439612411,0.0,0.0,0.0,-1.3729310000000001,0.7158854499999999,9.67916355,31.8
81467.23648097,81467.234531795,1.9491749990265816,44549.0,True,True,-0.13993766,-0.07319492,-0.98745078,0.9999995439612411,0.0,0.0,0.0,-1.36312435,0.7158854499999999,9.67916355,31.8
81467.244732731,81467.244233697,0.4990339948562905,44559.0,True,True,-0.13993766,-0.07319492,-0.98745078,0.9999995439612411,0.0,0.0,0.0,-1.36312435,0.7060787999999999,9.6889702,31.8
81467.255128076,81467.254178025,0.9500509913777933,44569.0,True,True,-0.13993766,-0.07319492,-0.98745078,0.9999995439612411,0.0,0.0,0.0,-1.3729310000000001,0.7158854499999999,9.669356899999999,31.8
81467.265457442,81467.264210611,1.2468310014810413,44579.0,True,True,-0.13993766,-0.07319492,-0.98745078,0.9999995439612411,0.0,0.0,0.0,-1.3729310000000001,0.7158854499999999,9.67916355,31.8
81467.275768817,81467.274249138,1.5196789900073782,44589.0,True,True,-0.13993766,-0.07319492,-0.98745078,0.9999995439612411,0.0,0.0,0.0,-1.3729310000000001,0.7158854499999999,9.669356899999999,31.8
81467.286097607,81467.28424544,1.8521669990150258,44599.0,True,True,-0.13993766,-0.07319492,-0.98745078,0.9999995439612411,0.0,0.0,0.0,-1.36312435,0.7060787999999999,9.67916355,31.8
81467.294337592,81467.294197939,0.1396529987687245,44609.0,True,True,-0.13993766,-0.07319492,-0.98745078,0.9999995439612411,0.0,0.0,0.0,-1.3827376499999997,0.7158854499999999,9.67916355,31.8
81467.304742674,81467.304225746,0.5169279902474955,44619.0,True,True,-0.13993766,-0.07319492,-0.98745078,0.9999995439612411,0.0,0.0,0.0,-1.3729310000000001,0.7158854499999999,9.6889702,31.8
81467.315115816,81467.314185566,0.9302499965997413,44629.0,True,True,-0.13993766,-0.07319492,-0.98745078,0.9999995439612411,0.0,0.0,0.0,-1.3729310000000001,0.7256921,9.669356899999999,31.8
81467.325438691,81467.324189471,1.2492200039559975,44639.0,True,True,-0.13993766,-0.07319492,-0.98745078,0.9999995439612411,0.0,0.0,0.0,-1.36312435,0.7158854499999999,9.67916355,31.8
81467.335767382,81467.334270566,1.4968159957788885,44649.0,True,True,-0.13993766,-0.07319492,-0.98745078,0.9999995439612411,0.0,0.0,0.0,-1.3729310000000001,0.7256921,9.67916355,31.8
81467.346124234,81467.344200942,1.9232920021750033,44659.0,True,True,-0.13993766,-0.07319492,-0.98745078,0.9999995439612411,0.0,0.0,0.0,-1.36312435,0.7158854499999999,9.67916355,31.8
81467.354392553,81467.354316346,0.07620699761901051,44669.0,True,True,-0.13993766,-0.07319492,-0.98745078,0.9999995439612411,0.0,0.0,0.0,-1.3729310000000001,0.7158854499999999,9.67916355,31.8
81467.36470553,81467.364244475,0.46105499495752156,44679.0,True,True,-0.13993766,-0.07319492,-0.98745078,0.9999995439612411,0.0,0.0,0.0,-1.3729310000000001,0.7158854499999999,9.669356899999999,31.8
81467.375007369,81467.37415696,0.8504090073984116,44689.0,True,True,-0.13993766,-0.07319492,-0.98745078,0.9999995439612411,0.0,0.0,0.0,-1.36312435,0.7158854499999999,9.67916355,31.8
81467.385308869,81467.384217119,1.0917499894276261,44699.0,True,True,-0.13993766,-0.07319492,-0.98745078,0.9999995439612411,0.0,0.0,0.0,-1.3729310000000001,0.7060787999999999,9.69877685,31.8
81467.395755951,81467.394197583,1.5583680069539696,44709.0,True,True,-0.13993766,-0.07319492,-0.98745078,0.9999995439612411,0.0,0.0,0.0,-1.3729310000000001,0.7158854499999999,9.669356899999999,31.8
81467.406141096,81467.404241415,1.8996809958480299,44719.0,True,True,-0.13993766,-0.07319492,-0.98745078,0.9999995439612411,0.0,0.0,0.0,-1.36312435,0.7060787999999999,9.67916355,31.8
81467.414374885,81467.414245511,0.1293740060646087,44729.0,True,True,-0.13993766,-0.07319492,-0.98745078,0.9999995439612411,0.0,0.0,0.0,-1.3729310000000001,0.7158854499999999,9.67916355,31.9
81467.424704128,81467.424257708,0.44642000284511596,44739.0,True,True,-0.13993766,-0.07319492,-0.98745078,0.9999995439612411,0.0,0.0,0.0,-1.3827376499999997,0.7256921,9.67916355,31.9
81467.435089306,81467.434248764,0.8405420085182413,44749.0,True,True,-0.13993766,-0.07319492,-0.98745078,0.9999995439612411,0.0,0.0,0.0,-1.3729310000000001,0.7158854499999999,9.67916355,31.8
81467.445438721,81467.444324351,1.1143699957756326,44759.0,True,True,-0.13993766,-0.07319492,-0.98745078,0.9999995439612411,0.0,0.0,0.0,-1.3729310000000001,0.7158854499999999,9.67916355,31.9
81467.45575584,81467.454250995,1.5048450004542246,44769.0,True,True,-0.13993766,-0.07319492,-0.98745078,0.9999995439612411,0.0,0.0,0.0,-1.3827376499999997,0.7158854499999999,9.67916355,31.8
81467.466153423,81467.464255545,1.89787799899932,44779.0,True,True,-0.13993766,-0.07319492,-0.98745078,0.9999995439612411,0.0,0.0,0.0,-1.3729310000000001,0.7158854499999999,9.67916355,31.8
81467.476509811,81467.474512448,1.997362996917218,44789.0,True,True,-0.13993766,-0.07319492,-0.98745078,0.9999995439612411,0.0,0.0,0.0,-1.3729310000000001,0.7158854499999999,9.67916355,31.9
81467.484788033,81467.484297079,0.49095400026999414,44799.0,True,True,-0.13993766,-0.07319492,-0.98745078,0.9999995439612411,0.0,0.0,0.0,-1.36312435,0.7158854499999999,9.67916355,31.9
81467.495184683,81467.494233983,0.9506999922450632,44809.0,True,True,-0.13993766,-0.07319492,-0.98745078,0.9999995439612411,0.0,0.0,0.0,-1.36312435,0.7158854499999999,9.6889702,31.8
81467.505520366,81467.504271924,1.2484420003602281,44819.0,True,True,-0.13993766,-0.07319492,-0.98745078,0.9999995439612411,0.0,0.0,0.0,-1.36312435,0.7060787999999999,9.67916355,31.9
81467.515896113,81467.514222886,1.6732269868953153,44829.0,True,True,-0.13993766,-0.07319492,-0.98745078,0.9999995439612411,0.0,0.0,0.0,-1.36312435,0.7158854499999999,9.669356899999999,31.8
81467.526255258,81467.524343854,1.9114039896521717,44839.0,True,True,-0.13993766,-0.07319492,-0.98745078,0.9999995439612411,0.0,0.0,0.0,-1.36312435,0.7256921,9.669356899999999,31.8
81467.534539298,81467.534278521,0.2607770002214238,44849.0,True,True,-0.13993766,-0.07319492,-0.98745078,0.9999995439612411,0.0,0.0,0.0,-1.3729310000000001,0.7158854499999999,9.67916355,31.8
81467.54497518,81467.544332885,0.6422950100386515,44859.0,True,True,-0.13993766,-0.07319492,-0.98745078,0.9999995439612411,0.0,0.0,0.0,-1.3729310000000001,0.7060787999999999,9.669356899999999,31.8
81467.555387257,81467.554288725,1.0985319968312979,44869.0,True,True,-0.13993766,-0.07319492,-0.98745078,0.9999995439612411,0.0,0.0,0.0,-1.3729310000000001,0.7158854499999999,9.67916355,31.8
81467.565733387,81467.564262123,1.4712639967910945,44879.0,True,True,-0.13993766,-0.07319492,-0.98745078,0.9999995439612411,0.0,0.0,0.0,-1.3827376499999997,0.7158854499999999,9.6889702,31.8
81467.576117435,81467.574381302,1.7361330101266503,44889.0,True,True,-0.13993766,-0.07319492,-0.98745078,0.9999995439612411,0.0,0.0,0.0,-1.36312435,0.7158854499999999,9.67916355,31.8
81467.584427949,81467.584267384,0.16056500317063183,44899.0,True,True,-0.13993766,-0.07319492,-0.98745078,0.9999995439612411,0.0,0.0,0.0,-1.3729310000000001,0.7256921,9.67916355,31.8
81467.594735673,81467.594324681,0.4109919973416254,44909.0,True,True,-0.13993766,-0.07319492,-0.98745078,0.9999995439612411,0.0,0.0,0.0,-1.3827376499999997,0.7158854499999999,9.67916355,31.8
81467.605107595,81467.604282585,0.8250099926954135,44919.0,True,True,-0.13993766,-0.07319492,-0.98745078,0.9999995439612411,0.0,0.0,0.0,-1.36312435,0.7158854499999999,9.6889702,31.8
81467.615410232,81467.614331639,1.0785930062411353,44929.0,True,True,-0.13993766,-0.07319492,-0.98745078,0.9999995439612411,0.0,0.0,0.0,-1.3729310000000001,0.7158854499999999,9.67916355,31.8
81467.625713619,81467.624300378,1.413240999681875,44939.0,True,True,-0.13993766,-0.07319492,-0.98745078,0.9999995439612411,0.0,0.0,0.0,-1.36312435,0.7158854499999999,9.67916355,31.8
81467.63605135,81467.634351683,1.6996670019580051,44949.0,True,True,-0.13993766,-0.07319492,-0.98745078,0.9999995439612411,0.0,0.0,0.0,-1.3729310000000001,0.7060787999999999,9.6889702,31.9
81467.644321365,81467.644266109,0.05525600863620639,44959.0,True,True,-0.13993766,-0.07319492,-0.98745078,0.9999995439612411,0.0,0.0,0.0,-1.36312435,0.7158854499999999,9.669356899999999,31.9
81467.654643043,81467.654265039,0.37800399877596647,44969.0,True,True,-0.13993766,-0.07319492,-0.98745078,0.9999995439612411,0.0,0.0,0.0,-1.3827376499999997,0.7158854499999999,9.659550249999999,31.8
81467.665060312,81467.66430953,0.7507820118917152,44979.0,True,True,-0.13993766,-0.07319492,-0.98745078,0.9999995439612411,0.0,0.0,0.0,-1.3729310000000001,0.7060787999999999,9.6889702,31.8
81467.675443027,81467.674235404,1.2076229904778302,44989.0,True,True,-0.13993766,-0.07319492,-0.98745078,0.9999995439612411,0.0,0.0,0.0,-1.3729310000000001,0.7158854499999999,9.669356899999999,31.9
81467.685766257,81467.684336483,1.4297739980975166,44999.0,True,True,-0.13993766,-0.07319492,-0.98745078,0.9999995439612411,0.0,0.0,0.0,-1.3729310000000001,0.7158854499999999,9.669356899999999,31.8
81467.696198798,81467.694320941,1.8778570083668455,45009.0,True,True,-0.13993766,-0.07319492,-0.98745078,0.9999995439612411,0.0,0.0,0.0,-1.3729310000000001,0.7158854499999999,9.67916355,31.8
81467.70450981,81467.70425027,0.25954000011552125,45019.0,True,True,-0.13993766,-0.07319492,-0.98745078,0.9999995439612411,0.0,0.0,0.0,-1.3827376499999997,0.7060787999999999,9.67916355,31.8
81467.714847506,81467.714260152,0.5873539921594784,45029.0,True,True,-0.13993766,-0.07319492,-0.98745078,0.9999995439612411,0.0,0.0,0.0,-1.3827376499999997,0.7158854499999999,9.67916355,31.8
81467.725230598,81467.724258283,0.9723149996716529,45039.0,True,True,-0.13993766,-0.07319492,-0.98745078,0.9999995439612411,0.0,0.0,0.0,-1.3729310000000001,0.7158854499999999,9.669356899999999,31.9
81467.735572215,81467.734243615,1.3285999884828925,45049.0,True,True,-0.13993766,-0.07319492,-0.98745078,0.9999995439612411,0.0,0.0,0.0,-1.36312435,0.7158854499999999,9.669356899999999,31.8
81467.74592737,81467.74424368,1.6836899885674939,45059.0,True,True,-0.13993766,-0.07319492,-0.98745078,0.9999995439612411,0.0,0.0,0.0,-1.3827376499999997,0.7158854499999999,9.67916355,31.8
81467.756328427,81467.754326313,2.0021139935124665,45069.0,True,True,-0.13993766,-0.07319492,-0.98745078,0.9999995439612411,0.0,0.0,0.0,-1.36312435,0.7158854499999999,9.669356899999999,31.9
81467.764595895,81467.764252895,0.34300000697840005,45079.0,True,True,-0.13993766,-0.07319492,-0.98745078,0.9999995439612411,0.0,0.0,0.0,-1.3729310000000001,0.7158854499999999,9.67916355,31.9
81467.774970018,81467.774311119,0.658898992696777,45089.0,True,True,-0.13993766,-0.07319492,-0.98745078,0.9999995439612411,0.0,0.0,0.0,-1.3827376499999997,0.7158854499999999,9.67916355,31.9
81467.785354914,81467.784305561,1.0493529989616945,45099.0,True,True,-0.13993766,-0.07319492,-0.98745078,0.9999995439612411,0.0,0.0,0.0,-1.3729310000000001,0.7158854499999999,9.669356899999999,31.9
81467.79565784,81467.794256144,1.4016960049048066,45109.0,True,True,-0.13993766,-0.07319492,-0.98745078,0.9999995439612411,0.0,0.0,0.0,-1.36312435,0.7060787999999999,9.669356899999999,31.9
81467.806121463,81467.804275186,1.8462769949110225,45119.0,True,True,-0.13993766,-0.07319492,-0.98745078,0.9999995439612411,0.0,0.0,0.0,-1.3729310000000001,0.7158854499999999,9.67916355,31.9
81467.814412923,81467.814240696,0.17222700989805162,45129.0,True,True,-0.13993766,-0.07319492,-0.98745078,0.9999995439612411,0.0,0.0,0.0,-1.3729310000000001,0.7158854499999999,9.6889702,31.9
81467.824700581,81467.824234015,0.46656599442940205,45139.0,True,True,-0.13993766,-0.07319492,-0.98745078,0.9999995439612411,0.0,0.0,0.0,-1.3827376499999997,0.7256921,9.67916355,31.9
81467.835088366,81467.834252661,0.8357049955520779,45149.0,True,True,-0.13993766,-0.07319492,-0.98745078,0.9999995439612411,0.0,0.0,0.0,-1.36312435,0.7256921,9.67916355,31.8
81467.845397017,81467.844209428,1.1875889904331416,45159.0,True,True,-0.13993766,-0.07319492,-0.98745078,0.9999995439612411,0.0,0.0,0.0,-1.3729310000000001,0.7158854499999999,9.669356899999999,31.8
81467.855707808,81467.85425956,1.4482480037258938,45169.0,True,True,-0.13993766,-0.07319492,-0.98745078,0.9999995439612411,0.0,0.0,0.0,-1.3729310000000001,0.7256921,9.669356899999999,31.8
81467.866119867,81467.86429806,1.8218070035800338,45179.0,True,True,-0.13993766,-0.07319492,-0.98745078,0.9999995439612411,0.0,0.0,0.0,-1.36312435,0.7060787999999999,9.669356899999999,31.8
81467.874369459,81467.874251132,0.11832699237857014,45189.0,True,True,-0.13993766,-0.07319492,-0.98745078,0.9999995439612411,0.0,0.0,0.0,-1.36312435,0.7158854499999999,9.67916355,31.8
81467.884745288,81467.884291951,0.45333699381444603,45199.0,True,True,-0.13993766,-0.07319492,-0.98745078,0.9999995439612411,0.0,0.0,0.0,-1.3729310000000001,0.7060787999999999,9.67916355,31.8
81467.895123703,81467.894271883,0.8518200047546998,45209.0,True,True,-0.13993766,-0.07319492,-0.98745078,0.9999995439612411,0.0,0.0,0.0,-1.3729310000000001,0.7158854499999999,9.67916355,31.8
81467.90543662,81467.904318001,1.1186189949512482,45219.0,True,True,-0.13993766,-0.07319492,-0.98745078,0.9999995439612411,0.0,0.0,0.0,-1.3729310000000001,0.7158854499999999,9.67916355,31.9
81467.91576441,81467.91428701,1.4774000010220334,45229.0,True,True,-0.13993766,-0.07319492,-0.98745078,0.9999995439612411,0.0,0.0,0.0,-1.36312435,0.7060787999999999,9.67916355,31.8
81467.926165863,81467.92424603,1.9198329973733053,45239.0,True,True,-0.13993766,-0.07319492,-0.98745078,0.9999995439612411,0.0,0.0,0.0,-1.36312435,0.7158854499999999,9.6889702,31.8
81467.934399458,81467.934300226,0.09923199831973761,45249.0,True,True,-0.13993766,-0.07319492,-0.98745078,0.9999995439612411,0.0,0.0,0.0,-1.3827376499999997,0.7158854499999999,9.67916355,31.8
81467.944710057,81467.944388496,0.3215609904145822,45259.0,True,True,-0.13993766,-0.07319492,-0.98745078,0.9999995439612411,0.0,0.0,0.0,-1.36312435,0.7256921,9.669356899999999,31.8
81467.955079292,81467.954367421,0.711871005478315,45269.0,True,True,-0.13993766,-0.07319492,-0.98745078,0.9999995439612411,0.0,0.0,0.0,-1.36312435,0.7158854499999999,9.669356899999999,31.8
81467.965463715,81467.964322058,1.1416569905122742,45279.0,True,True,-0.13993766,-0.07319492,-0.98745078,0.9999995439612411,0.0,0.0,0.0,-1.36312435,0.7256921,9.67916355,31.9
81467.97591647,81467.9743534,1.563069992698729,45289.0,True,True,-0.13993766,-0.07319492,-0.98745078,0.9999995439612411,0.0,0.0,0.0,-1.3729310000000001,0.7158854499999999,9.67916355,31.9
81467.986328263,81467.984390341,1.9379220029804856,45299.0,True,True,-0.13993766,-0.07319492,-0.98745078,0.9999995439612411,0.0,0.0,0.0,-1.3729310000000001,0.7256921,9.67916355,31.9
81467.994600104,81467.994287621,0.31248299637809396,45309.0,True,True,-0.13993766,-0.07319492,-0.98745078,0.9999995439612411,0.0,0.0,0.0,-1.36312435,0.7158854499999999,9.67916355,31.9
81468.004965237,81468.004351721,0.6135160074336454,45319.0,True,True,-0.13993766,-0.07319492,-0.98745078,0.9999995439612411,0.0,0.0,0.0,-1.36312435,0.7158854499999999,9.67916355,31.8
81468.015283617,81468.014312452,0.9711650054669008,45329.0,True,True,-0.13993766,-0.07319492,-0.98745078,0.9999995439612411,0.0,0.0,0.0,-1.3729310000000001,0.7158854499999999,9.67916355,31.9
81468.025584787,81468.024311251,1.2735359923681244,45339.0,True,True,-0.13993766,-0.07319492,-0.98745078,0.9999995439612411,0.0,0.0,0.0,-1.3533177,0.7158854499999999,9.669356899999999,31.8
81468.035924941,81468.034260868,1.6640730027575046,45349.0,True,True,-0.13993766,-0.07319492,-0.98745078,0.9999995439612411,0.0,0.0,0.0,-1.36312435,0.7158854499999999,9.6889702,31.9
81468.046271348,81468.044346072,1.9252759957453236,45359.0,True,True,-0.13993766,-0.07319492,-0.98745078,0.9999995439612411,0.0,0.0,0.0,-1.3729310000000001,0.7158854499999999,9.6889702,31.9
81468.054552147,81468.05429067,0.26147700555156916,45369.0,True,True,-0.13993766,-0.07319492,-0.98745078,0.9999995439612411,0.0,0.0,0.0,-1.3729310000000001,0.7060787999999999,9.67916355,31.9
81468.064976045,81468.064389109,0.5869360029464588,45379.0,True,True,-0.13993766,-0.07319492,-0.98745078,0.9999995439612411,0.0,0.0,0.0,-1.36312435,0.7158854499999999,9.67916355,31.8
81468.075315537,81468.074265037,1.0505000100238249,45389.0,True,True,-0.13993766,-0.07319492,-0.98745078,0.9999995439612411,0.0,0.0,0.0,-1.36312435,0.7256921,9.669356899999999,31.8
81468.085614659,81468.084201709,1.4129499904811382,45399.0,True,True,-0.13993766,-0.07319492,-0.98745078,0.9999995439612411,0.0,0.0,0.0,-1.3827376499999997,0.7256921,9.67916355,31.9
81468.096024438,81468.094325334,1.6991040029097348,45409.0,True,True,-0.13993766,-0.07319492,-0.98745078,0.9999995439612411,0.0,0.0,0.0,-1.3729310000000001,0.7060787999999999,9.67916355,31.9
81468.104370317,81468.104230361,0.13995599874760956,45419.0,True,True,-0.13993766,-0.07319492,-0.98745078,0.9999995439612411,0.0,0.0,0.0,-1.3729310000000001,0.7256921,9.67916355,31.9
81468.114681621,81468.114232328,0.44929300202056766,45429.0,True,True,-0.13993766,-0.07319492,-0.98745078,0.9999995439612411,0.0,0.0,0.0,-1.36312435,0.7060787999999999,9.67916355,31.9
81468.125004728,81468.124270028,0.7347000064328313,45439.0,True,True,-0.13993766,-0.07319492,-0.98745078,0.9999995439612411,0.0,0.0,0.0,-1.3729310000000001,0.7158854499999999,9.6889702,31.8
81468.135280924,81468.134213737,1.0671870113583282,45449.0,True,True,-0.13993766,-0.07319492,-0.98745078,0.9999995439612411,0.0,0.0,0.0,-1.3729310000000001,0.7060787999999999,9.669356899999999,31.9
81468.145618707,81468.144365113,1.2535940040834248,45459.0,True,True,-0.13993766,-0.07319492,-0.98745078,0.9999995439612411,0.0,0.0,0.0,-1.3729310000000001,0.7256921,9.67916355,31.9
81468.156027892,81468.154283472,1.744419991155155,45469.0,True,True,-0.13993766,-0.07319492,-0.98745078,0.9999995439612411,0.0,0.0,0.0,-1.36312435,0.7158854499999999,9.669356899999999,31.9
81468.16433513,81468.164288757,0.04637299571186304,45479.0,True,True,-0.13993766,-0.07319492,-0.98745078,0.9999995439612411,0.0,0.0,0.0,-1.36312435,0.7256921,9.67916355,31.8
81468.174694381,81468.174442628,0.2517529937904328,45489.0,True,True,-0.13993766,-0.07319492,-0.98745078,0.9999995439612411,0.0,0.0,0.0,-1.3533177,0.7256921,9.67916355,31.9
81468.185098948,81468.184225154,0.8737940079299733,45499.0,True,True,-0.13993766,-0.07319492,-0.98745078,0.9999995439612411,0.0,0.0,0.0,-1.3827376499999997,0.7158854499999999,9.67916355,31.8
81468.195460164,81468.194309045,1.151119009591639,45509.0,True,True,-0.13993766,-0.07319492,-0.98745078,0.9999995439612411,0.0,0.0,0.0,-1.36312435,0.7158854499999999,9.669356899999999,31.8
81468.205843332,81468.204325576,1.5177559980656952,45519.0,True,True,-0.13993766,-0.07319492,-0.98745078,0.9999995439612411,0.0,0.0,0.0,-1.3729310000000001,0.7158854499999999,9.6889702,31.8
81468.216273372,81468.21427684,1.996532009798102,45529.0,True,True,-0.13993766,-0.07319492,-0.98745078,0.9999995439612411,0.0,0.0,0.0,-1.3729310000000001,0.7158854499999999,9.67916355,31.8
81468.224547346,81468.224304369,0.2429770102025941,45539.0,True,True,-0.13993766,-0.07319492,-0.98745078,0.9999995439612411,0.0,0.0,0.0,-1.3827376499999997,0.7158854499999999,9.67916355,31.8
81468.234948886,81468.234241762,0.7071240106597543,45549.0,True,True,-0.13993766,-0.07319492,-0.98745078,0.9999995439612411,0.0,0.0,0.0,-1.3827376499999997,0.7256921,9.669356899999999,31.8
81468.245374951,81468.244194832,1.1801189975813031,45559.0,True,True,-0.13993766,-0.07319492,-0.98745078,0.9999995439612411,0.0,0.0,0.0,-1.36312435,0.7158854499999999,9.669356899999999,31.9
81468.255699629,81468.254253628,1.446000998839736,45569.0,True,True,-0.13993766,-0.07319492,-0.98745078,0.9999995439612411,0.0,0.0,0.0,-1.36312435,0.7158854499999999,9.6889702,31.9
81468.266097351,81468.264259453,1.8378980021225289,45579.0,True,True,-0.13993766,-0.07319492,-0.98745078,0.9999995439612411,0.0,0.0,0.0,-1.3729310000000001,0.7158854499999999,9.6889702,31.9
81468.274413037,81468.274249557,0.1634799991734326,45589.0,True,True,-0.13993766,-0.07319492,-0.98745078,0.9999995439612411,0.0,0.0,0.0,-1.36312435,0.7158854499999999,9.67916355,31.9
81468.284734481,81468.284419029,0.3154519945383072,45599.0,True,True,-0.13993766,-0.07319492,-0.98745078,0.9999995439612411,0.0,0.0,0.0,-1.36312435,0.7158854499999999,9.67916355,31.9
81468.295150543,81468.294226918,0.9236249898094684,45609.0,True,True,-0.13993766,-0.07319492,-0.98745078,0.9999995439612411,0.0,0.0,0.0,-1.3827376499999997,0.7060787999999999,9.67916355,31.8
81468.305511432,81468.304243743,1.2676890037255362,45619.0,True,True,-0.13993766,-0.07319492,-0.98745078,0.9999995439612411,0.0,0.0,0.0,-1.3729310000000001,0.7256921,9.67916355,31.8
81468.315886346,81468.314195409,1.690937002422288,45629.0,True,True,-0.13993766,-0.07319492,-0.98745078,0.9999995439612411,0.0,0.0,0.0,-1.3729310000000001,0.7256921,9.6889702,31.8
81468.326293457,81468.324336527,1.9569299911381677,45639.0,True,True,-0.13993766,-0.07319492,-0.98745078,0.9999995439612411,0.0,0.0,0.0,-1.36312435,0.7256921,9.67916355,31.8
81468.334571532,81468.334253421,0.31811100780032575,45649.0,True,True,-0.13993766,-0.07319492,-0.98745078,0.9999995439612411,0.0,0.0,0.0,-1.3729310000000001,0.7158854499999999,9.67916355,31.8
81468.344896628,81468.344218168,0.6784599972888827,45659.0,True,True,-0.13993766,-0.07319492,-0.98745078,0.9999995439612411,0.0,0.0,0.0,-1.3827376499999997,0.7060787999999999,9.67916355,31.8
81468.355239801,81468.354258386,0.9814150107558817,45669.0,True,True,-0.13993766,-0.07319492,-0.98745078,0.9999995439612411,0.0,0.0,0.0,-1.3729310000000001,0.7158854499999999,9.67916355,31.8
81468.365555916,81468.364209104,1.3468120014294982,45679.0,True,True,-0.13993766,-0.07319492,-0.98745078,0.9999995439612411,0.0,0.0,0.0,-1.36312435,0.7158854499999999,9.67916355,31.8
81468.375962854,81468.374316854,1.6460000042570755,45689.0,True,True,-0.13993766,-0.07319492,-0.98745078,0.9999995439612411,0.0,0.0,0.0,-1.3729310000000001,0.7158854499999999,9.669356899999999,31.8
81468.384258445,81468.384243366,0.015079000149853528,45699.0,True,True,-0.13993766,-0.07319492,-0.98745078,0.9999995439612411,0.0,0.0,0.0,-1.3827376499999997,0.7158854499999999,9.669356899999999,31.8
81468.394574435,81468.394224217,0.3502180043142289,45709.0,True,True,-0.13993766,-0.07319492,-0.98745078,0.9999995439612411,0.0,0.0,0.0,-1.36312435,0.7256921,9.67916355,31.8
81468.404946105,81468.404237303,0.7088020065566525,45719.0,True,True,-0.13993766,-0.07319492,-0.98745078,0.9999995439612411,0.0,0.0,0.0,-1.3827376499999997,0.7158854499999999,9.67916355,31.8
81468.415380875,81468.414260089,1.1207859934074804,45729.0,True,True,-0.13993766,-0.07319492,-0.98745078,0.9999995439612411,0.0,0.0,0.0,-1.3729310000000001,0.7158854499999999,9.659550249999999,31.9
81468.425734121,81468.42424468,1.4894409978296608,45739.0,True,True,-0.13993766,-0.07319492,-0.98745078,0.9999995439612411,0.0,0.0,0.0,-1.3729310000000001,0.7158854499999999,9.6889702,31.8
81468.436129078,81468.434239506,1.889572013169527,45749.0,True,True,-0.13993766,-0.07319492,-0.98745078,0.9999995439612411,0.0,0.0,0.0,-1.3729310000000001,0.7158854499999999,9.67916355,31.8
81468.44445162,81468.444235366,0.21625400404445827,45759.0,True,True,-0.13993766,-0.07319492,-0.98745078,0.9999995439612411,0.0,0.0,0.0,-1.3729310000000001,0.7060787999999999,9.669356899999999,31.8
81468.454807161,81468.454176437,0.6307240109890699,45769.0,True,True,-0.13993766,-0.07319492,-0.98745078,0.9999995439612411,0.0,0.0,0.0,-1.3827376499999997,0.7060787999999999,9.67916355,31.8
81468.465098974,81468.464253617,0.8453570044366643,45779.0,True,True,-0.13993766,-0.07319492,-0.98745078,0.9999995439612411,0.0,0.0,0.0,-1.36312435,0.7256921,9.67916355,31.8
81468.475471665,81468.474252806,1.2188590044388548,45789.0,True,True,-0.13993766,-0.07319492,-0.98745078,0.9999995439612411,0.0,0.0,0.0,-1.36312435,0.7158854499999999,9.67916355,31.8
81468.485832231,81468.484193418,1.638813002500683,45799.0,True,True,-0.13993766,-0.07319492,-0.98745078,0.9999995439612411,0.0,0.0,0.0,-1.36312435,0.7060787999999999,9.669356899999999,31.8
81468.496224612,81468.494212858,2.0117539970669895,45809.0,True,True,-0.13993766,-0.07319492,-0.98745078,0.9999995439612411,0.0,0.0,0.0,-1.3729310000000001,0.7060787999999999,9.67916355,31.9
81468.504494044,81468.504230057,0.263986992649734,45819.0,True,True,-0.13993766,-0.07319492,-0.98745078,0.9999995439612411,0.0,0.0,0.0,-1.36312435,0.7158854499999999,9.67916355,31.8
81468.514800465,81468.51425793,0.5425349954748526,45829.0,True,True,-0.13993766,-0.07319492,-0.98745078,0.9999995439612411,0.0,0.0,0.0,-1.3729310000000001,0.7158854499999999,9.6889702,31.8
81468.525181749,81468.524232138,0.9496109996689484,45839.0,True,True,-0.13993766,-0.07319492,-0.98745078,0.9999995439612411,0.0,0.0,0.0,-1.36312435,0.7060787999999999,9.67916355,31.8
81468.535556718,81468.534313861,1.2428569898474962,45849.0,True,True,-0.13993766,-0.07319492,-0.98745078,0.9999995439612411,0.0,0.0,0.0,-1.3533177,0.7158854499999999,9.67916355,31.8
81468.545928939,81468.544364671,1.5642679936718196,45859.0,True,True,-0.13993766,-0.07319492,-0.98745078,0.9999995439612411,0.0,0.0,0.0,-1.3729310000000001,0.7256921,9.67916355,31.9
81468.556251735,81468.554275427,1.9763080053962767,45869.0,True,True,-0.13993766,-0.07319492,-0.98745078,0.9999995439612411,0.0,0.0,0.0,-1.36312435,0.7158854499999999,9.669356899999999,31.9
81468.564536924,81468.564275401,0.2615229896036908,45879.0,True,True,-0.13993766,-0.07319492,-0.98745078,0.9999995439612411,0.0,0.0,0.0,-1.36312435,0.7060787999999999,9.67916355,31.8
81468.574916086,81468.574291446,0.624640000751242,45889.0,True,True,-0.13993766,-0.07319492,-0.98745078,0.9999995439612411,0.0,0.0,0.0,-1.36312435,0.7158854499999999,9.67916355,31.9
81468.585305674,81468.584213501,1.0921729990513995,45899.0,True,True,-0.13993766,-0.07319492,-0.98745078,0.9999995439612411,0.0,0.0,0.0,-1.3827376499999997,0.7256921,9.669356899999999,31.9
81468.595670265,81468.594218969,1.4512960042338818,45909.0,True,True,-0.13993766,-0.07319492,-0.98745078,0.9999995439612411,0.0,0.0,0.0,-1.3729310000000001,0.7158854499999999,9.669356899999999,31.8
81468.604734347,81468.604721292,0.013055003364570439,45919.0,True,True,-0.13993766,-0.07319492,-0.98745078,0.9999995439612411,0.0,0.0,0.0,-1.3729310000000001,0.7158854499999999,9.6889702,31.8
81468.615177165,81468.614177597,0.9995680011343211,45929.0,True,True,-0.13993766,-0.07319492,-0.98745078,0.9999995439612411,0.0,0.0,0.0,-1.3729310000000001,0.7158854499999999,9.669356899999999,31.8
81468.625585692,81468.624264928,1.3207640004111454,45939.0,True,True,-0.13993766,-0.07319492,-0.98745078,0.9999995439612411,0.0,0.0,0.0,-1.3729310000000001,0.7158854499999999,9.669356899999999,31.8
81468.635947367,81468.634261083,1.6862839984241873,45949.0,True,True,-0.13993766,-0.07319492,-0.98745078,0.9999995439612411,0.0,0.0,0.0,-1.3827376499999997,0.7158854499999999,9.67916355,31.8
81468.644250371,81468.644211467,0.0389039923902601,45959.0,True,True,-0.13993766,-0.07319492,-0.98745078,0.9999995439612411,0.0,0.0,0.0,-1.3827376499999997,0.7158854499999999,9.67916355,31.9
81468.654605564,81468.654254733,0.35083100374322385,45969.0,True,True,-0.13993766,-0.07319492,-0.98745078,0.9999995439612411,0.0,0.0,0.0,-1.36312435,0.7256921,9.67916355,31.9
81468.665037981,81468.664398674,0.63930700707715,45979.0,True,True,-0.13993766,-0.07319492,-0.98745078,0.9999995439612411,0.0,0.0,0.0,-1.3729310000000001,0.7158854499999999,9.669356899999999,31.9
81468.675452685,81468.674317412,1.1352729925420135,45989.0,True,True,-0.13993766,-0.07319492,-0.98745078,0.9999995439612411,0.0,0.0,0.0,-1.3729310000000001,0.7158854499999999,9.67916355,31.9
81468.685805347,81468.684245507,1.559840005938895,45999.0,True,True,-0.13993766,-0.07319492,-0.98745078,0.9999995439612411,0.0,0.0,0.0,-1.3925442999999997,0.7158854499999999,9.67916355,31.9
81468.69619536,81468.694350532,1.844828002504073,46009.0,True,True,-0.13993766,-0.07319492,-0.98745078,0.9999995439612411,0.0,0.0,0.0,-1.3729310000000001,0.7256921,9.67916355,31.8
81468.704543496,81468.70437491,0.1685860042925924,46019.0,True,True,-0.13993766,-0.07319492,-0.98745078,0.9999995439612411,0.0,0.0,0.0,-1.3729310000000001,0.7060787999999999,9.669356899999999,31.8
81468.714987217,81468.71428202,0.7051970023894683,46029.0,True,True,-0.13993766,-0.07319492,-0.98745078,0.9999995439612411,0.0,0.0,0.0,-1.3729310000000001,0.7158854499999999,9.67916355,31.8
81468.725392862,81468.72431084,1.0820220049936324,46039.0,True,True,-0.13993766,-0.07319492,-0.98745078,0.9999995439612411,0.0,0.0,0.0,-1.36312435,0.7256921,9.67916355,31.8
81468.735710881,81468.734178296,1.5325849963119254,46049.0,True,True,-0.13993766,-0.07319492,-0.98745078,0.9999995439612411,0.0,0.0,0.0,-1.36312435,0.7158854499999999,9.69877685,31.8
81468.746135929,81468.744332235,1.803694001864642,46059.0,True,True,-0.13993766,-0.07319492,-0.98745078,0.9999995439612411,0.0,0.0,0.0,-1.36312435,0.7158854499999999,9.6889702,31.8
81468.754416684,81468.754239962,0.17672199464868754,46069.0,True,True,-0.13993766,-0.07319492,-0.98745078,0.9999995439612411,0.0,0.0,0.0,-1.36312435,0.7158854499999999,9.67916355,31.9
81468.76477955,81468.764237779,0.5417709908215329,46079.0,True,True,-0.13993766,-0.07319492,-0.98745078,0.9999995439612411,0.0,0.0,0.0,-1.3729310000000001,0.7158854499999999,9.67916355,31.8
81468.775203972,81468.774276704,0.9272680035792291,46089.0,True,True,-0.13993766,-0.07319492,-0.98745078,0.9999995439612411,0.0,0.0,0.0,-1.3533177,0.7158854499999999,9.669356899999999,31.8
81468.785541713,81468.784221221,1.320492010563612,46099.0,True,True,-0.13993766,-0.07319492,-0.98745078,0.9999995439612411,0.0,0.0,0.0,-1.3729310000000001,0.7060787999999999,9.669356899999999,31.8
81468.795914025,81468.794192617,1.721407999866642,46109.0,True,True,-0.13993766,-0.07319492,-0.98745078,0.9999995439612411,0.0,0.0,0.0,-1.3729310000000001,0.7158854499999999,9.67916355,31.9
81468.804237447,81468.804208161,0.0292859913315624,46119.0,True,True,-0.13978832,-0.07306283999999999,-0.98748152,0.9999993526691897,0.0,0.0,0.0,-1.3729310000000001,0.7158854499999999,9.67916355,31.8
81468.814591937,81468.814186787,0.40515000000596046,46129.0,True,True,-0.13993766,-0.07319492,-0.98745078,0.9999995439612411,0.0,0.0,0.0,-1.36312435,0.7256921,9.67916355,31.8
81468.824940725,81468.824196257,0.7444679940817878,46139.0,True,True,-0.13993766,-0.07319492,-0.98745078,0.9999995439612411,0.0,0.0,0.0,-1.3729310000000001,0.7158854499999999,9.669356899999999,31.8
81468.835318856,81468.834219752,1.0991040035150945,46149.0,True,True,-0.13993766,-0.07319492,-0.98745078,0.9999995439612411,0.0,0.0,0.0,-1.3729310000000001,0.7158854499999999,9.67916355,31.8
81468.845635195,81468.844224451,1.4107440074440092,46159.0,True,True,-0.13993766,-0.07319492,-0.98745078,0.9999995439612411,0.0,0.0,0.0,-1.36312435,0.7158854499999999,9.6889702,31.8
81468.856013851,81468.854210941,1.8029099883278832,46169.0,True,True,-0.13993766,-0.07319492,-0.98745078,0.9999995439612411,0.0,0.0,0.0,-1.36312435,0.7158854499999999,9.67916355,31.8
81468.864276121,81468.86422253,0.05359100759960711,46179.0,True,True,-0.13978832,-0.07306283999999999,-0.98748152,0.9999993526691897,0.0,0.0,0.0,-1.36312435,0.7158854499999999,9.67916355,31.8
81468.874613655,81468.874146397,0.46725801075808704,46189.0,True,True,-0.13978832,-0.07306283999999999,-0.98748152,0.9999993526691897,0.0,0.0,0.0,-1.3729310000000001,0.7158854499999999,9.67916355,31.8
81468.885031343,81468.884241246,0.7900969940237701,46199.0,True,True,-0.13978832,-0.07306283999999999,-0.98748152,0.9999993526691897,0.0,0.0,0.0,-1.36312435,0.7256921,9.6889702,31.9
81468.895379389,81468.894231945,1.1474439961602911,46209.0,True,True,-0.13978832,-0.07306283999999999,-0.98748152,0.9999993526691897,0.0,0.0,0.0,-1.3827376499999997,0.7158854499999999,9.669356899999999,31.9
81468.90567605,81468.904160282,1.5157679881667718,46219.0,True,True,-0.13978832,-0.07306283999999999,-0.98748152,0.9999993526691897,0.0,0.0,0.0,-1.36312435,0.7158854499999999,9.67916355,31.8
81468.916074022,81468.91425748,1.8165419896831736,46229.0,True,True,-0.13978832,-0.07306283999999999,-0.98748152,0.9999993526691897,0.0,0.0,0.0,-1.3729310000000001,0.7158854499999999,9.67916355,31.8
81468.924416144,81468.924195458,0.2206859935540706,46239.0,True,True,-0.13993766,-0.07319492,-0.98745078,0.9999995439612411,0.0,0.0,0.0,-1.3729310000000001,0.7158854499999999,9.659550249999999,31.8
81468.934710921,81468.934204914,0.5060070106992498,46249.0,True,True,-0.13978832,-0.07306283999999999,-0.98748152,0.9999993526691897,0.0,0.0,0.0,-1.3827376499999997,0.7158854499999999,9.67916355,31.8
81468.94510553,81468.944236518,0.8690120012033731,46259.0,True,True,-0.13993766,-0.07319492,-0.98745078,0.9999995439612411,0.0,0.0,0.0,-1.3827376499999997,0.7158854499999999,9.67916355,31.8
81468.955522401,81468.954246436,1.2759649980580434,46269.0,True,True,-0.13993766,-0.07319492,-0.98745078,0.9999995439612411,0.0,0.0,0.0,-1.3729310000000001,0.7158854499999999,9.6889702,31.8
81468.965855834,81468.964191923,1.6639109962852672,46279.0,True,True,-0.13993766,-0.07319492,-0.98745078,0.9999995439612411,0.0,0.0,0.0,-1.3729310000000001,0.7158854499999999,9.67916355,31.8
81468.97624265,81468.974224652,2.017997991060838,46289.0,True,True,-0.13993766,-0.07319492,-0.98745078,0.9999995439612411,0.0,0.0,0.0,-1.36312435,0.7158854499999999,9.67916355,31.8
81468.984521814,81468.984215124,0.30668999534100294,46299.0,True,True,-0.13978832,-0.07306283999999999,-0.98748152,0.9999993526691897,0.0,0.0,0.0,-1.3827376499999997,0.7158854499999999,9.6889702,31.8
81468.994882491,81468.994212626,0.6698649958707392,46309.0,True,True,-0.13978832,-0.07306283999999999,-0.98748152,0.9999993526691897,0.0,0.0,0.0,-1.3533177,0.7256921,9.67916355,31.8
81469.005266803,81469.004215079,1.0517240007175133,46319.0,True,True,-0.13978832,-0.07306283999999999,-0.98748152,0.9999993526691897,0.0,0.0,0.0,-1.3729310000000001,0.7158854499999999,9.669356899999999,31.8
81469.015545884,81469.014191519,1.3543649984057993,46329.0,True,True,-0.13993766,-0.07319492,-0.98745078,0.9999995439612411,0.0,0.0,0.0,-1.3729310000000001,0.7256921,9.6889702,31.8
81469.025949416,81469.024377605,1.5718109934823588,46339.0,True,True,-0.13993766,-0.07319492,-0.98745078,0.9999995439612411,0.0,0.0,0.0,-1.36312435,0.7158854499999999,9.669356899999999,31.8
81469.036329846,81469.034395659,1.9341870065545663,46349.0,True,True,-0.13993766,-0.07319492,-0.98745078,0.9999995439612411,0.0,0.0,0.0,-1.36312435,0.7060787999999999,9.669356899999999,31.8
81469.044574708,81469.04438978,0.18492799426894635,46359.0,True,True,-0.13993766,-0.07319492,-0.98745078,0.9999995439612411,0.0,0.0,0.0,-1.36312435,0.7060787999999999,9.67916355,31.8
81469.054932532,81469.054388137,0.5443950067274272,46369.0,True,True,-0.13993766,-0.07319492,-0.98745078,0.9999995439612411,0.0,0.0,0.0,-1.36312435,0.7158854499999999,9.67916355,31.8
81469.06534625,81469.064446165,0.9000850113807246,46379.0,True,True,-0.13993766,-0.07319492,-0.98745078,0.9999995439612411,0.0,0.0,0.0,-1.36312435,0.7158854499999999,9.67916355,31.8
81469.075659921,81469.07419299,1.4669310039607808,46389.0,True,True,-0.13993766,-0.07319492,-0.98745078,0.9999995439612411,0.0,0.0,0.0,-1.3729310000000001,0.7158854499999999,9.67916355,31.8
81469.086006168,81469.084224909,1.7812589940149337,46399.0,True,True,-0.13993766,-0.07319492,-0.98745078,0.9999995439612411,0.0,0.0,0.0,-1.3729310000000001,0.7158854499999999,9.67916355,31.8
81469.096379728,81469.094474898,1.9048300018766895,46409.0,True,True,-0.13993766,-0.07319492,-0.98745078,0.9999995439612411,0.0,0.0,0.0,-1.3729310000000001,0.7158854499999999,9.67916355,31.8
81469.104622796,81469.104235652,0.38714399852324277,46419.0,True,True,-0.13993766,-0.07319492,-0.98745078,0.9999995439612411,0.0,0.0,0.0,-1.3533177,0.7060787999999999,9.67916355,31.8
81469.115022013,81469.114231873,0.7901399949332699,46429.0,True,True,-0.13978832,-0.07306283999999999,-0.98748152,0.9999993526691897,0.0,0.0,0.0,-1.3729310000000001,0.7158854499999999,9.669356899999999,31.8
81469.125422115,81469.124211695,1.2104199995519593,46439.0,True,True,-0.13993766,-0.07319492,-0.98745078,0.9999995439612411,0.0,0.0,0.0,-1.3729310000000001,0.7256921,9.6889702,31.8
81469.135716295,81469.134308606,1.4076890074647963,46449.0,True,True,-0.13993766,-0.07319492,-0.98745078,0.9999995439612411,0.0,0.0,0.0,-1.3729310000000001,0.7158854499999999,9.669356899999999,31.8
81469.146137583,81469.144317699,1.8198839970864356,46459.0,True,True,-0.13978832,-0.07306283999999999,-0.98748152,0.9999993526691897,0.0,0.0,0.0,-1.3729310000000001,0.7158854499999999,9.669356899999999,31.8
81469.154441001,81469.154226929,0.21407200256362557,46469.0,True,True,-0.13993766,-0.07319492,-0.98745078,0.9999995439612411,0.0,0.0,0.0,-1.3729310000000001,0.7158854499999999,9.67916355,31.8
81469.164781751,81469.164322424,0.4593269986798987,46479.0,True,True,-0.13993766,-0.07319492,-0.98745078,0.9999995439612411,0.0,0.0,0.0,-1.36312435,0.7158854499999999,9.669356899999999,31.8
81469.175183394,81469.174279733,0.9036610135808587,46489.0,True,True,-0.13993766,-0.07319492,-0.98745078,0.9999995439612411,0.0,0.0,0.0,-1.36312435,0.7158854499999999,9.67916355,31.8
81469.18554285,81469.184269911,1.2729390000458807,46499.0,True,True,-0.13993766,-0.07319492,-0.98745078,0.9999995439612411,0.0,0.0,0.0,-1.36312435,0.7158854499999999,9.67916355,31.8
81469.195911893,81469.19434215,1.569742991705425,46509.0,True,True,-0.13993766,-0.07319492,-0.98745078,0.9999995439612411,0.0,0.0,0.0,-1.3729310000000001,0.7158854499999999,9.67916355,31.9
81469.206317839,81469.204289085,2.0287539955461398,46519.0,True,True,-0.13993766,-0.07319492,-0.98745078,0.9999995439612411,0.0,0.0,0.0,-1.36312435,0.7158854499999999,9.669356899999999,31.8
81469.214586843,81469.214187427,0.39941599243320525,46529.0,True,True,-0.13993766,-0.07319492,-0.98745078,0.9999995439612411,0.0,0.0,0.0,-1.3729310000000001,0.7158854499999999,9.6889702,31.8
81469.224971527,81469.224213429,0.7580980018246919,46539.0,True,True,-0.13993766,-0.07319492,-0.98745078,0.9999995439612411,0.0,0.0,0.0,-1.3729310000000001,0.7158854499999999,9.67916355,31.9
81469.235365647,81469.234217561,1.1480859975563362,46549.0,True,True,-0.13993766,-0.07319492,-0.98745078,0.9999995439612411,0.0,0.0,0.0,-1.36312435,0.7158854499999999,9.67916355,31.9
81469.245697211,81469.2441407,1.556510993395932,46559.0,True,True,-0.13978832,-0.07306283999999999,-0.98748152,0.9999993526691897,0.0,0.0,0.0,-1.3827376499999997,0.7060787999999999,9.6889702,31.9
81469.256074219,81469.254233939,1.840279990574345,46569.0,True,True,-0.13993766,-0.07319492,-0.98745078,0.9999995439612411,0.0,0.0,0.0,-1.3729310000000001,0.7158854499999999,9.67916355,31.8
81469.264374594,81469.26419742,0.17717400623951107,46579.0,True,True,-0.13993766,-0.07319492,-0.98745078,0.9999995439612411,0.0,0.0,0.0,-1.3729310000000001,0.7256921,9.67916355,31.9
81469.274697308,81469.274215787,0.4815210122615099,46589.0,True,True,-0.13993766,-0.07319492,-0.98745078,0.9999995439612411,0.0,0.0,0.0,-1.3729310000000001,0.7256921,9.67916355,31.8
81469.285091995,81469.284252515,0.8394799951929599,46599.0,True,True,-0.13993766,-0.07319492,-0.98745078,0.9999995439612411,0.0,0.0,0.0,-1.3729310000000001,0.7256921,9.67916355,31.8
81469.29549006,81469.294200455,1.2896050029667094,46609.0,True,True,-0.13993766,-0.07319492,-0.98745078,0.9999995439612411,0.0,0.0,0.0,-1.3827376499999997,0.7256921,9.6889702,31.8
81469.305831293,81469.304213183,1.6181099927052855,46619.0,True,True,-0.13993766,-0.07319492,-0.98745078,0.9999995439612411,0.0,0.0,0.0,-1.36312435,0.7158854499999999,9.6889702,31.8
81469.31621606,81469.314243097,1.9729630002984777,46629.0,True,True,-0.13993766,-0.07319492,-0.98745078,0.9999995439612411,0.0,0.0,0.0,-1.3533177,0.7060787999999999,9.67916355,31.8
81469.324542467,81469.324140125,0.4023420042358339,46639.0,True,True,-0.13993766,-0.07319492,-0.98745078,0.9999995439612411,0.0,0.0,0.0,-1.36312435,0.7158854499999999,9.67916355,31.8
81469.334888072,81469.334172629,0.7154430059017614,46649.0,True,True,-0.13993766,-0.07319492,-0.98745078,0.9999995439612411,0.0,0.0,0.0,-1.3729310000000001,0.7060787999999999,9.67916355,31.8
81469.345250264,81469.344204411,1.0458530014147982,46659.0,True,True,-0.13993766,-0.07319492,-0.98745078,0.9999995439612411,0.0,0.0,0.0,-1.36312435,0.7256921,9.669356899999999,31.8
81469.35556585,81469.354166895,1.3989549916004762,46669.0,True,True,-0.13978832,-0.07306283999999999,-0.98748152,0.9999993526691897,0.0,0.0,0.0,-1.36312435,0.7158854499999999,9.669356899999999,31.8
81469.365924604,81469.3642233,1.701304005109705,46679.0,True,True,-0.13978832,-0.07306283999999999,-0.98748152,0.9999993526691897,0.0,0.0,0.0,-1.36312435,0.7060787999999999,9.67916355,31.8
81469.376309316,81469.374295055,2.0142610010225326,46689.0,True,True,-0.13978832,-0.07306283999999999,-0.98748152,0.9999993526691897,0.0,0.0,0.0,-1.3729310000000001,0.7158854499999999,9.669356899999999,31.9
81469.384606001,81469.384252864,0.35313700209371746,46699.0,True,True,-0.13978832,-0.07306283999999999,-0.98748152,0.9999993526691897,0.0,0.0,0.0,-1.36312435,0.7256921,9.67916355,31.8
81469.394996721,81469.394230446,0.7662749994779006,46709.0,True,True,-0.13993766,-0.07319492,-0.98745078,0.9999995439612411,0.0,0.0,0.0,-1.3729310000000001,0.7158854499999999,9.6889702,31.9
81469.405424922,81469.404212792,1.21213000966236,46719.0,True,True,-0.13978832,-0.07306283999999999,-0.98748152,0.9999993526691897,0.0,0.0,0.0,-1.3729310000000001,0.7158854499999999,9.69877685,31.9
81469.41574302,81469.414159137,1.5838830004213378,46729.0,True,True,-0.13978832,-0.07306283999999999,-0.98748152,0.9999993526691897,0.0,0.0,0.0,-1.36312435,0.7158854499999999,9.67916355,31.8
81469.426138247,81469.424187784,1.9504630035953596,46739.0,True,True,-0.13978832,-0.07306283999999999,-0.98748152,0.9999993526691897,0.0,0.0,0.0,-1.3729310000000001,0.7158854499999999,9.67916355,31.8
81469.43444649,81469.434183903,0.26258701109327376,46749.0,True,True,-0.13978832,-0.07306283999999999,-0.98748152,0.9999993526691897,0.0,0.0,0.0,-1.3729310000000001,0.7158854499999999,9.6889702,31.9
81469.444758908,81469.444187777,0.5711309931939468,46759.0,True,True,-0.13978832,-0.07306283999999999,-0.98748152,0.9999993526691897,0.0,0.0,0.0,-1.3533177,0.7158854499999999,9.6889702,31.9
81469.455154095,81469.454187857,0.9662380034569651,46769.0,True,True,-0.13978832,-0.07306283999999999,-0.98748152,0.9999993526691897,0.0,0.0,0.0,-1.3729310000000001,0.7256921,9.67916355,31.9
81469.465526275,81469.464239493,1.2867820041719824,46779.0,True,True,-0.13978832,-0.07306283999999999,-0.98748152,0.9999993526691897,0.0,0.0,0.0,-1.36312435,0.7256921,9.6889702,31.9
81469.475870095,81469.474188769,1.6813260008348152,46789.0,True,True,-0.13978832,-0.07306283999999999,-0.98748152,0.9999993526691897,0.0,0.0,0.0,-1.36312435,0.7158854499999999,9.67916355,31.9
81469.48433944,81469.484328065,0.011374999303370714,46799.0,True,True,-0.13978832,-0.07306283999999999,-0.98748152,0.9999993526691897,0.0,0.0,0.0,-1.3729310000000001,0.7256921,9.67916355,31.9
81469.494670855,81469.49422705,0.443804994574748,46809.0,True,True,-0.13978832,-0.07306283999999999,-0.98748152,0.9999993526691897,0.0,0.0,0.0,-1.3827376499999997,0.7256921,9.67916355,31.8
81469.505129582,81469.504214143,0.9154389990726486,46819.0,True,True,-0.13978832,-0.07306283999999999,-0.98748152,0.9999993526691897,0.0,0.0,0.0,-1.3729310000000001,0.7158854499999999,9.67916355,31.8
81469.515536147,81469.514255754,1.2803930003428832,46829.0,True,True,-0.13978832,-0.07306283999999999,-0.98748152,0.9999993526691897,0.0,0.0,0.0,-1.3729310000000001,0.7158854499999999,9.669356899999999,31.9
81469.525819212,81469.524182103,1.6371089877793565,46839.0,True,True,-0.13978832,-0.07306283999999999,-0.98748152,0.9999993526691897,0.0,0.0,0.0,-1.3533177,0.7256921,9.67916355,31.9
81469.536178204,81469.534336225,1.841978999436833,46849.0,True,True,-0.13978832,-0.07306283999999999,-0.98748152,0.9999993526691897,0.0,0.0,0.0,-1.36312435,0.7060787999999999,9.67916355,31.8
81469.544493925,81469.544229978,0.26394700398668647,46859.0,True,True,-0.13978832,-0.07306283999999999,-0.98748152,0.9999993526691897,0.0,0.0,0.0,-1.3729310000000001,0.7158854499999999,9.6889702,31.9
81469.554858882,81469.554281957,0.5769249983131886,46869.0,True,True,-0.13978832,-0.07306283999999999,-0.98748152,0.9999993526691897,0.0,0.0,0.0,-1.3729310000000001,0.7158854499999999,9.67916355,31.9
81469.565241543,81469.564234909,1.0066339891636744,46879.0,True,True,-0.13978832,-0.07306283999999999,-0.98748152,0.9999993526691897,0.0,0.0,0.0,-1.36312435,0.7158854499999999,9.669356899999999,31.9
81469.575587376,81469.57423738,1.3499960041372105,46889.0,True,True,-0.13978832,-0.07306283999999999,-0.98748152,0.9999993526691897,0.0,0.0,0.0,-1.3827376499999997,0.7158854499999999,9.67916355,31.9
81469.586019358,81469.584233565,1.785793007002212,46899.0,True,True,-0.13978832,-0.07306283999999999,-0.98748152,0.9999993526691897,0.0,0.0,0.0,-1.36312435,0.7158854499999999,9.67916355,31.9
81469.594361827,81469.594213721,0.1481060025980696,46909.0,True,True,-0.13978832,-0.07306283999999999,-0.98748152,0.9999993526691897,0.0,0.0,0.0,-1.36312435,0.7158854499999999,9.67916355,31.8
81469.604686755,81469.60431314,0.37361501017585397,46919.0,True,True,-0.13978832,-0.07306283999999999,-0.98748152,0.9999993526691897,0.0,0.0,0.0,-1.36312435,0.7256921,9.67916355,31.9
81469.615050413,81469.614239545,0.8108680049190298,46929.0,True,True,-0.13978832,-0.07306283999999999,-0.98748152,0.9999993526691897,0.0,0.0,0.0,-1.3729310000000001,0.7158854499999999,9.6889702,31.8
81469.625459536,81469.624181148,1.278387993806973,46939.0,True,True,-0.13978832,-0.07306283999999999,-0.98748152,0.9999993526691897,0.0,0.0,0.0,-1.36312435,0.7060787999999999,9.67916355,31.8
81469.635759749,81469.634191566,1.5681829972891137,46949.0,True,True,-0.13978832,-0.07306283999999999,-0.98748152,0.9999993526691897,0.0,0.0,0.0,-1.3729310000000001,0.7158854499999999,9.67916355,31.8
81469.646166792,81469.644251236,1.9155560003127903,46959.0,True,True,-0.13978832,-0.07306283999999999,-0.98748152,0.9999993526691897,0.0,0.0,0.0,-1.3729310000000001,0.7158854499999999,9.6889702,31.8
81469.654488966,81469.654211305,0.27766100538428873,46969.0,True,True,-0.13978832,-0.07306283999999999,-0.98748152,0.9999993526691897,0.0,0.0,0.0,-1.3533177,0.7158854499999999,9.669356899999999,31.9
81469.664837097,81469.664511509,0.32558800012338907,46979.0,True,True,-0.13978832,-0.07306283999999999,-0.98748152,0.9999993526691897,0.0,0.0,0.0,-1.3729310000000001,0.7158854499999999,9.669356899999999,31.8
81469.675212097,81469.674249727,0.9623700025258586,46989.0,True,True,-0.13978832,-0.07306283999999999,-0.98748152,0.9999993526691897,0.0,0.0,0.0,-1.3729310000000001,0.7158854499999999,9.669356899999999,31.9
81469.685577192,81469.68422708,1.3501119974534959,46999.0,True,True,-0.13978832,-0.07306283999999999,-0.98748152,0.9999993526691897,0.0,0.0,0.0,-1.36312435,0.7158854499999999,9.6889702,31.9
81469.695940146,81469.694205537,1.7346090025966987,47009.0,True,True,-0.13978832,-0.07306283999999999,-0.98748152,0.9999993526691897,0.0,0.0,0.0,-1.3729310000000001,0.7256921,9.67916355,31.9
81469.706285487,81469.704327415,1.9580719963414595,47019.0,True,True,-0.13978832,-0.07306283999999999,-0.98748152,0.9999993526691897,0.0,0.0,0.0,-1.3729310000000001,0.7158854499999999,9.67916355,31.9
81469.714588798,81469.714265181,0.3236170014133677,47029.0,True,True,-0.13978832,-0.07306283999999999,-0.98748152,0.9999993526691897,0.0,0.0,0.0,-1.3729310000000001,0.7158854499999999,9.67916355,31.9
81469.72494771,81469.724265003,0.682707002852112,47039.0,True,True,-0.13993766,-0.07319492,-0.98745078,0.9999995439612411,0.0,0.0,0.0,-1.3729310000000001,0.7158854499999999,9.6889702,31.9
81469.735338211,81469.734445671,0.8925400034058839,47049.0,True,True,-0.13993766,-0.07319492,-0.98745078,0.9999995439612411,0.0,0.0,0.0,-1.36312435,0.7256921,9.67916355,31.9
81469.745717797,81469.74423799,1.479807004216127,47059.0,True,True,-0.13993766,-0.07319492,-0.98745078,0.9999995439612411,0.0,0.0,0.0,-1.3729310000000001,0.7158854499999999,9.67916355,31.9
81469.756124599,81469.754316971,1.807627995731309,47069.0,True,True,-0.13993766,-0.07319492,-0.98745078,0.9999995439612411,0.0,0.0,0.0,-1.3827376499999997,0.7158854499999999,9.6889702,31.9
81469.764451949,81469.764430032,0.021917003323324025,47079.0,True,True,-0.13993766,-0.07319492,-0.98745078,0.9999995439612411,0.0,0.0,0.0,-1.36312435,0.7256921,9.67916355,31.8
81469.774735447,81469.774290543,0.44490399886853993,47089.0,True,True,-0.13993766,-0.07319492,-0.98745078,0.9999995439612411,0.0,0.0,0.0,-1.3729310000000001,0.7256921,9.669356899999999,31.8
81469.785081262,81469.784278788,0.8024739945540205,47099.0,True,True,-0.13993766,-0.07319492,-0.98745078,0.9999995439612411,0.0,0.0,0.0,-1.3729310000000001,0.7158854499999999,9.67916355,31.8
81469.795508356,81469.79433114,1.1772159923566505,47109.0,True,True,-0.13993766,-0.07319492,-0.98745078,0.9999995439612411,0.0,0.0,0.0,-1.36312435,0.7158854499999999,9.659550249999999,31.8
81469.805943251,81469.804178456,1.7647950007813051,47119.0,True,True,-0.13993766,-0.07319492,-0.98745078,0.9999995439612411,0.0,0.0,0.0,-1.3729310000000001,0.7060787999999999,9.67916355,31.8
81469.814275172,81469.814238952,0.03621999348979443,47129.0,True,True,-0.13993766,-0.07319492,-0.98745078,0.9999995439612411,0.0,0.0,0.0,-1.3729310000000001,0.7060787999999999,9.669356899999999,31.8
81469.824594389,81469.824296089,0.29830000130459666,47139.0,True,True,-0.13993766,-0.07319492,-0.98745078,0.9999995439612411,0.0,0.0,0.0,-1.3729310000000001,0.7158854499999999,9.67916355,31.8
81469.834995787,81469.834294538,0.7012489950284362,47149.0,True,True,-0.13993766,-0.07319492,-0.98745078,0.9999995439612411,0.0,0.0,0.0,-1.36312435,0.7060787999999999,9.67916355,31.8
81469.845423174,81469.844242092,1.1810819996753708,47159.0,True,True,-0.13993766,-0.07319492,-0.98745078,0.9999995439612411,0.0,0.0,0.0,-1.3827376499999997,0.7158854499999999,9.67916355,31.8
81469.855713084,81469.854301452,1.4116320089669898,47169.0,True,True,-0.13993766,-0.07319492,-0.98745078,0.9999995439612411,0.0,0.0,0.0,-1.36312435,0.7158854499999999,9.67916355,31.8
81469.866366488,81469.86447565,1.8908380006905645,47179.0,True,True,-0.13993766,-0.07319492,-0.98745078,0.9999995439612411,0.0,0.0,0.0,-1.3729310000000001,0.7256921,9.6889702,31.8
81469.874679111,81469.874389304,0.289807008812204,47189.0,True,True,-0.13993766,-0.07319492,-0.98745078,0.9999995439612411,0.0,0.0,0.0,-1.36312435,0.7158854499999999,9.67916355,31.8
81469.885118701,81469.884254362,0.8643390028737485,47199.0,True,True,-0.13993766,-0.07319492,-0.98745078,0.9999995439612411,0.0,0.0,0.0,-1.36312435,0.6962721499999999,9.659550249999999,31.8
81469.895449759,81469.894298614,1.151144999312237,47209.0,True,True,-0.13993766,-0.07319492,-0.98745078,0.9999995439612411,0.0,0.0,0.0,-1.3729310000000001,0.7158854499999999,9.67916355,31.8
81469.905769551,81469.904247267,1.5222840011119843,47219.0,True,True,-0.13993766,-0.07319492,-0.98745078,0.9999995439612411,0.0,0.0,0.0,-1.36312435,0.7158854499999999,9.669356899999999,31.8
81469.916133889,81469.914336516,1.7973729991354048,47229.0,True,True,-0.13993766,-0.07319492,-0.98745078,0.9999995439612411,0.0,0.0,0.0,-1.36312435,0.7158854499999999,9.67916355,31.8
81469.924385646,81469.924310669,0.0749769969843328,47239.0,True,True,-0.13993766,-0.07319492,-0.98745078,0.9999995439612411,0.0,0.0,0.0,-1.3729310000000001,0.7158854499999999,9.669356899999999,31.8
81469.934768143,81469.934368932,0.39921099960338324,47249.0,True,True,-0.13993766,-0.07319492,-0.98745078,0.9999995439612411,0.0,0.0,0.0,-1.36312435,0.7158854499999999,9.67916355,31.9
81469.94514557,81469.94424681,0.8987600012915209,47259.0,True,True,-0.13993766,-0.07319492,-0.98745078,0.9999995439612411,0.0,0.0,0.0,-1.3729310000000001,0.7158854499999999,9.67916355,31.9
81469.955459775,81469.954309169,1.1506059963721782,47269.0,True,True,-0.13993766,-0.07319492,-0.98745078,0.9999995439612411,0.0,0.0,0.0,-1.3729310000000001,0.7256921,9.67916355,31.9
81469.965784702,81469.964254164,1.5305379929486662,47279.0,True,True,-0.13993766,-0.07319492,-0.98745078,0.9999995439612411,0.0,0.0,0.0,-1.36312435,0.7158854499999999,9.67916355,31.9
81469.976186193,81469.974353793,1.8323999975109473,47289.0,True,True,-0.13993766,-0.07319492,-0.98745078,0.9999995439612411,0.0,0.0,0.0,-1.3729310000000001,0.7158854499999999,9.67916355,31.8
81469.984409312,81469.984365292,0.044020009227097034,47299.0,True,True,-0.13993766,-0.07319492,-0.98745078,0.9999995439612411,0.0,0.0,0.0,-1.3827376499999997,0.7158854499999999,9.669356899999999,31.8
81469.994774997,81469.994332531,0.4424660000950098,47309.0,True,True,-0.13993766,-0.07319492,-0.98745078,0.9999995439612411,0.0,0.0,0.0,-1.36312435,0.7158854499999999,9.669356899999999,31.8
81470.005173344,81470.004433407,0.7399370078928769,47319.0,True,True,-0.13993766,-0.07319492,-0.98745078,0.9999995439612411,0.0,0.0,0.0,-1.36312435,0.7158854499999999,9.669356899999999,31.8
81470.015582857,81470.014287105,1.2957519938936457,47329.0,True,True,-0.13993766,-0.07319492,-0.98745078,0.9999995439612411,0.0,0.0,0.0,-1.3729310000000001,0.7158854499999999,9.6889702,31.8
81470.025936841,81470.024297686,1.6391550016123801,47339.0,True,True,-0.13993766,-0.07319492,-0.98745078,0.9999995439612411,0.0,0.0,0.0,-1.3729310000000001,0.7256921,9.6889702,31.8
81470.036241652,81470.034308625,1.9330269860802218,47349.0,True,True,-0.13993766,-0.07319492,-0.98745078,0.9999995439612411,0.0,0.0,0.0,-1.3827376499999997,0.7158854499999999,9.669356899999999,31.8
81470.044477661,81470.044230067,0.24759399821050465,47359.0,True,True,-0.13993766,-0.07319492,-0.98745078,0.9999995439612411,0.0,0.0,0.0,-1.36312435,0.7158854499999999,9.6889702,31.8
81470.054820054,81470.054336018,0.4840360052185133,47369.0,True,True,-0.13993766,-0.07319492,-0.98745078,0.9999995439612411,0.0,0.0,0.0,-1.3827376499999997,0.7060787999999999,9.669356899999999,31.8
81470.065210697,81470.06434192,0.868776987772435,47379.0,True,True,-0.13993766,-0.07319492,-0.98745078,0.9999995439612411,0.0,0.0,0.0,-1.3729310000000001,0.7158854499999999,9.6889702,31.8
81470.075525123,81470.074312038,1.2130849936511368,47389.0,True,True,-0.13978832,-0.07306283999999999,-0.98748152,0.9999993526691897,0.0,0.0,0.0,-1.3729310000000001,0.7158854499999999,9.6889702,31.8
81470.085850277,81470.084269158,1.5811189950909466,47399.0,True,True,-0.13993766,-0.07319492,-0.98745078,0.9999995439612411,0.0,0.0,0.0,-1.3827376499999997,0.7256921,9.669356899999999,31.8
81470.096209464,81470.094323673,1.8857910035876557,47409.0,True,True,-0.13993766,-0.07319492,-0.98745078,0.9999995439612411,0.0,0.0,0.0,-1.3729310000000001,0.7158854499999999,9.669356899999999,31.8
81470.104455982,81470.104262229,0.19375300325918943,47419.0,True,True,-0.13993766,-0.07319492,-0.98745078,0.9999995439612411,0.0,0.0,0.0,-1.3729310000000001,0.7158854499999999,9.67916355,31.9
81470.114738053,81470.114250771,0.4872819990850985,47429.0,True,True,-0.13993766,-0.07319492,-0.98745078,0.9999995439612411,0.0,0.0,0.0,-1.3729310000000001,0.7256921,9.67916355,31.8
81470.125128365,81470.124315955,0.8124099986162037,47439.0,True,True,-0.13993766,-0.07319492,-0.98745078,0.9999995439612411,0.0,0.0,0.0,-1.3729310000000001,0.7256921,9.669356899999999,31.9
81470.135427347,81470.13424888,1.178467005956918,47449.0,True,True,-0.13993766,-0.07319492,-0.98745078,0.9999995439612411,0.0,0.0,0.0,-1.3827376499999997,0.7158854499999999,9.67916355,31.9
81470.145734518,81470.144386611,1.3479069893946871,47459.0,True,True,-0.13993766,-0.07319492,-0.98745078,0.9999995439612411,0.0,0.0,0.0,-1.3729310000000001,0.7158854499999999,9.669356899999999,31.8
81470.156063217,81470.154467009,1.5962080069584772,47469.0,True,True,-0.13993766,-0.07319492,-0.98745078,0.9999995439612411,0.0,0.0,0.0,-1.36312435,0.7158854499999999,9.67916355,31.9
81470.164344993,81470.164310972,0.034020995371975005,47479.0,True,True,-0.13993766,-0.07319492,-0.98745078,0.9999995439612411,0.0,0.0,0.0,-1.3729310000000001,0.7158854499999999,9.6889702,31.9
81470.174682436,81470.174361184,0.32125199504662305,47489.0,True,True,-0.13993766,-0.07319492,-0.98745078,0.9999995439612411,0.0,0.0,0.0,-1.3827376499999997,0.7158854499999999,9.6889702,31.8
81470.185059543,81470.184403397,0.6561460031662136,47499.0,True,True,-0.13993766,-0.07319492,-0.98745078,0.9999995439612411,0.0,0.0,0.0,-1.36312435,0.7256921,9.6889702,31.9
81470.195350576,81470.194274999,1.0755770053947344,47509.0,True,True,-0.13993766,-0.07319492,-0.98745078,0.9999995439612411,0.0,0.0,0.0,-1.36312435,0.7158854499999999,9.67916355,31.8
81470.205674394,81470.204359603,1.3147910067345947,47519.0,True,True,-0.13993766,-0.07319492,-0.98745078,0.9999995439612411,0.0,0.0,0.0,-1.3729310000000001,0.7158854499999999,9.67916355,31.9
81470.216158821,81470.214481236,1.6775849944679067,47529.0,True,True,-0.13993766,-0.07319492,-0.98745078,0.9999995439612411,0.0,0.0,0.0,-1.3827376499999997,0.7060787999999999,9.6889702,31.9
81470.226522737,81470.224534162,1.9885749934474006,47539.0,True,True,-0.13993766,-0.07319492,-0.98745078,0.9999995439612411,0.0,0.0,0.0,-1.3729310000000001,0.7256921,9.659550249999999,31.8
81470.234769529,81470.234337251,0.432278000516817,47549.0,True,True,-0.13993766,-0.07319492,-0.98745078,0.9999995439612411,0.0,0.0,0.0,-1.3533177,0.7158854499999999,9.6889702,31.8
81470.245170191,81470.244342595,0.8275959989987314,47559.0,True,True,-0.13993766,-0.07319492,-0.98745078,0.9999995439612411,0.0,0.0,0.0,-1.3729310000000001,0.7060787999999999,9.67916355,31.8
81470.255531437,81470.254406139,1.1252979893470183,47569.0,True,True,-0.13993766,-0.07319492,-0.98745078,0.9999995439612411,0.0,0.0,0.0,-1.3729310000000001,0.7256921,9.67916355,31.9
81470.26589511,81470.26428101,1.6141000087372959,47579.0,True,True,-0.13993766,-0.07319492,-0.98745078,0.9999995439612411,0.0,0.0,0.0,-1.36312435,0.7158854499999999,9.6889702,31.9
81470.276287719,81470.274290827,1.9968919950770214,47589.0,True,True,-0.13993766,-0.07319492,-0.98745078,0.9999995439612411,0.0,0.0,0.0,-1.3729310000000001,0.7256921,9.669356899999999,31.8
81470.28457459,81470.284351585,0.22300500131677836,47599.0,True,True,-0.13993766,-0.07319492,-0.98745078,0.9999995439612411,0.0,0.0,0.0,-1.36312435,0.7060787999999999,9.659550249999999,31.8
81470.294935003,81470.294304791,0.6302120018517599,47609.0,True,True,-0.13993766,-0.07319492,-0.98745078,0.9999995439612411,0.0,0.0,0.0,-1.3827376499999997,0.7256921,9.69877685,31.8
81470.305303689,81470.304337286,0.9664030076237395,47619.0,True,True,-0.13993766,-0.07319492,-0.98745078,0.9999995439612411,0.0,0.0,0.0,-1.3729310000000001,0.7158854499999999,9.6889702,31.8
81470.315627501,81470.314301835,1.3256660022307187,47629.0,True,True,-0.13993766,-0.07319492,-0.98745078,0.9999995439612411,0.0,0.0,0.0,-1.3729310000000001,0.7158854499999999,9.67916355,31.8
81470.325988598,81470.324401277,1.587320992257446,47639.0,True,True,-0.13993766,-0.07319492,-0.98745078,0.9999995439612411,0.0,0.0,0.0,-1.3827376499999997,0.7060787999999999,9.669356899999999,31.8
81470.334360471,81470.334346135,0.014335993910208344,47649.0,True,True,-0.13993766,-0.07319492,-0.98745078,0.9999995439612411,0.0,0.0,0.0,-1.36312435,0.7060787999999999,9.67916355,31.8
81470.344697967,81470.34446761,0.23035699268803,47659.0,True,True,-0.13993766,-0.07319492,-0.98745078,0.9999995439612411,0.0,0.0,0.0,-1.3827376499999997,0.7158854499999999,9.67916355,31.8
81470.355088492,81470.354361368,0.7271240028785542,47669.0,True,True,-0.13993766,-0.07319492,-0.98745078,0.9999995439612411,0.0,0.0,0.0,-1.3729310000000001,0.7158854499999999,9.67916355,31.9
81470.365468063,81470.36439675,1.0713130031945184,47679.0,True,True,-0.13993766,-0.07319492,-0.98745078,0.9999995439612411,0.0,0.0,0.0,-1.36312435,0.7158854499999999,9.6889702,31.8
81470.375780607,81470.374318073,1.4625340118072927,47689.0,True,True,-0.13993766,-0.07319492,-0.98745078,0.9999995439612411,0.0,0.0,0.0,-1.36312435,0.7256921,9.669356899999999,31.9
81470.386197161,81470.384292276,1.9048850081162527,47699.0,True,True,-0.13993766,-0.07319492,-0.98745078,0.9999995439612411,0.0,0.0,0.0,-1.3729310000000001,0.7060787999999999,9.67916355,31.9
81470.394455884,81470.394401277,0.054607007768936455,47709.0,True,True,-0.13993766,-0.07319492,-0.98745078,0.9999995439612411,0.0,0.0,0.0,-1.3827376499999997,0.7060787999999999,9.6889702,31.9
81470.404753761,81470.404446837,0.3069240046897903,47719.0,True,True,-0.13993766,-0.07319492,-0.98745078,0.9999995439612411,0.0,0.0,0.0,-1.3827376499999997,0.7158854499999999,9.669356899999999,31.9
81470.415155461,81470.41437409,0.7813709962647408,47729.0,True,True,-0.13993766,-0.07319492,-0.98745078,0.9999995439612411,0.0,0.0,0.0,-1.3827376499999997,0.7256921,9.67916355,31.8
81470.425493194,81470.424465832,1.0273619991494343,47739.0,True,True,-0.13993766,-0.07319492,-0.98745078,0.9999995439612411,0.0,0.0,0.0,-1.3729310000000001,0.7158854499999999,9.67916355,31.8
81470.435807457,81470.434258087,1.5493700047954917,47749.0,True,True,-0.13993766,-0.07319492,-0.98745078,0.9999995439612411,0.0,0.0,0.0,-1.3729310000000001,0.7256921,9.67916355,31.9
81470.446157773,81470.444291336,1.8664369999896735,47759.0,True,True,-0.13993766,-0.07319492,-0.98745078,0.9999995439612411,0.0,0.0,0.0,-1.3729310000000001,0.7158854499999999,9.67916355,31.9
81470.454384382,81470.454303586,0.08079600229393691,47769.0,True,True,-0.13993766,-0.07319492,-0.98745078,0.9999995439612411,0.0,0.0,0.0,-1.36312435,0.7060787999999999,9.669356899999999,31.9
81470.464722697,81470.464309499,0.41319799493066967,47779.0,True,True,-0.13993766,-0.07319492,-0.98745078,0.9999995439612411,0.0,0.0,0.0,-1.3729310000000001,0.7158854499999999,9.67916355,31.9
81470.475117471,81470.474222178,0.8952929929364473,47789.0,True,True,-0.13993766,-0.07319492,-0.98745078,0.9999995439612411,0.0,0.0,0.0,-1.36312435,0.7256921,9.67916355,31.9
81470.485404008,81470.484235997,1.168010989204049,47799.0,True,True,-0.13993766,-0.07319492,-0.98745078,0.9999995439612411,0.0,0.0,0.0,-1.3729310000000001,0.7256921,9.67916355,31.8
81470.495709507,81470.494251491,1.4580159913748503,47809.0,True,True,-0.13993766,-0.07319492,-0.98745078,0.9999995439612411,0.0,0.0,0.0,-1.3729310000000001,0.7158854499999999,9.67916355,31.8
81470.506033951,81470.504253852,1.7800989880925044,47819.0,True,True,-0.13993766,-0.07319492,-0.98745078,0.9999995439612411,0.0,0.0,0.0,-1.36312435,0.7256921,9.67916355,31.8
81470.514301353,81470.514282054,0.019298997358419,47829.0,True,True,-0.13993766,-0.07319492,-0.98745078,0.9999995439612411,0.0,0.0,0.0,-1.3729310000000001,0.7158854499999999,9.67916355,31.8
81470.524653346,81470.52426356,0.38978600059635937,47839.0,True,True,-0.13993766,-0.07319492,-0.98745078,0.9999995439612411,0.0,0.0,0.0,-1.36312435,0.7256921,9.67916355,31.8
81470.534967965,81470.534208223,0.7597419898957014,47849.0,True,True,-0.13993766,-0.07319492,-0.98745078,0.9999995439612411,0.0,0.0,0.0,-1.36312435,0.7158854499999999,9.67916355,31.9
81470.54530531,81470.544246059,1.0592510079732165,47859.0,True,True,-0.13993766,-0.07319492,-0.98745078,0.9999995439612411,0.0,0.0,0.0,-1.3729310000000001,0.7158854499999999,9.6889702,31.8
81470.555600983,81470.554227348,1.3736350083490834,47869.0,True,True,-0.13993766,-0.07319492,-0.98745078,0.9999995439612411,0.0,0.0,0.0,-1.3729310000000001,0.7158854499999999,9.67916355,31.8
81470.565994607,81470.564240429,1.7541779961902648,47879.0,True,True,-0.13993766,-0.07319492,-0.98745078,0.9999995439612411,0.0,0.0,0.0,-1.3729310000000001,0.7158854499999999,9.67916355,31.9
81470.57426346,81470.574252853,0.010607007425278425,47889.0,True,True,-0.13993766,-0.07319492,-0.98745078,0.9999995439612411,0.0,0.0,0.0,-1.3827376499999997,0.7158854499999999,9.67916355,31.9
81470.5846105,81470.584246754,0.36374598857946694,47899.0,True,True,-0.13993766,-0.07319492,-0.98745078,0.9999995439612411,0.0,0.0,0.0,-1.3827376499999997,0.7158854499999999,9.67916355,31.9
81470.595022542,81470.594259957,0.7625849975738674,47909.0,True,True,-0.13993766,-0.07319492,-0.98745078,0.9999995439612411,0.0,0.0,0.0,-1.3729310000000001,0.7256921,9.67916355,31.8
81470.605323175,81470.604288192,1.0349829972255975,47919.0,True,True,-0.13993766,-0.07319492,-0.98745078,0.9999995439612411,0.0,0.0,0.0,-1.3729310000000001,0.7158854499999999,9.669356899999999,31.8
81470.615689743,81470.614255555,1.4341880014399067,47929.0,True,True,-0.13993766,-0.07319492,-0.98745078,0.9999995439612411,0.0,0.0,0.0,-1.36312435,0.7158854499999999,9.669356899999999,31.8
81470.626091688,81470.624260216,1.8314719927730039,47939.0,True,True,-0.13993766,-0.07319492,-0.98745078,0.9999995439612411,0.0,0.0,0.0,-1.3729310000000001,0.7158854499999999,9.67916355,31.8
81470.634336463,81470.634289264,0.04719900607597083,47949.0,True,True,-0.13993766,-0.07319492,-0.98745078,0.9999995439612411,0.0,0.0,0.0,-1.3729310000000001,0.7158854499999999,9.67916355,31.9
81470.644645108,81470.64426537,0.37973799044266343,47959.0,True,True,-0.13993766,-0.07319492,-0.98745078,0.9999995439612411,0.0,0.0,0.0,-1.36312435,0.7158854499999999,9.67916355,31.9
81470.655031544,81470.654210702,0.820841989479959,47969.0,True,True,-0.13993766,-0.07319492,-0.98745078,0.9999995439612411,0.0,0.0,0.0,-1.3729310000000001,0.7158854499999999,9.6889702,31.8
81470.665340967,81470.664175916,1.1650509986793622,47979.0,True,True,-0.13993766,-0.07319492,-0.98745078,0.9999995439612411,0.0,0.0,0.0,-1.3533177,0.7060787999999999,9.6889702,31.9
81470.675717085,81470.674266075,1.4510100008919835,47989.0,True,True,-0.13993766,-0.07319492,-0.98745078,0.9999995439612411,0.0,0.0,0.0,-1.36312435,0.7158854499999999,9.67916355,31.9
81470.686162441,81470.684193932,1.9685089937411249,47999.0,True,True,-0.13993766,-0.07319492,-0.98745078,0.9999995439612411,0.0,0.0,0.0,-1.3827376499999997,0.7060787999999999,9.6889702,31.9
81470.694469973,81470.694233445,0.23652799427509308,48009.0,True,True,-0.13993766,-0.07319492,-0.98745078,0.9999995439612411,0.0,0.0,0.0,-1.3827376499999997,0.7158854499999999,9.6889702,31.9
81470.704768889,81470.704239329,0.5295599985402077,48019.0,True,True,-0.13993766,-0.07319492,-0.98745078,0.9999995439612411,0.0,0.0,0.0,-1.3533177,0.7060787999999999,9.669356899999999,31.8
81470.715151831,81470.71421717,0.9346610022475943,48029.0,True,True,-0.13993766,-0.07319492,-0.98745078,0.9999995439612411,0.0,0.0,0.0,-1.3533177,0.7256921,9.6889702,31.8
81470.725517981,81470.724196285,1.3216960069257766,48039.0,True,True,-0.13993766,-0.07319492,-0.98745078,0.9999995439612411,0.0,0.0,0.0,-1.3729310000000001,0.7060787999999999,9.669356899999999,31.9
81470.735847912,81470.734227459,1.620452996576205,48049.0,True,True,-0.13993766,-0.07319492,-0.98745078,0.9999995439612411,0.0,0.0,0.0,-1.36312435,0.7256921,9.669356899999999,31.9
81470.746158226,81470.744330541,1.8276850023539737,48059.0,True,True,-0.13993766,-0.07319492,-0.98745078,0.9999995439612411,0.0,0.0,0.0,-1.3729310000000001,0.7158854499999999,9.6889702,31.8
81470.754407317,81470.754216873,0.1904439995996654,48069.0,True,True,-0.13993766,-0.07319492,-0.98745078,0.9999995439612411,0.0,0.0,0.0,-1.3729310000000001,0.7158854499999999,9.6889702,31.8
81470.764767703,81470.76432914,0.4385630018077791,48079.0,True,True,-0.13993766,-0.07319492,-0.98745078,0.9999995439612411,0.0,0.0,0.0,-1.36312435,0.7158854499999999,9.67916355,31.9
81470.775177959,81470.774432474,0.7454849983332679,48089.0,True,True,-0.13993766,-0.07319492,-0.98745078,0.9999995439612411,0.0,0.0,0.0,-1.36312435,0.7158854499999999,9.67916355,31.9
81470.785498723,81470.78438603,1.1126929894089699,48099.0,True,True,-0.13993766,-0.07319492,-0.98745078,0.9999995439612411,0.0,0.0,0.0,-1.3729310000000001,0.7256921,9.67916355,31.8
81470.795860357,81470.794279353,1.581004005856812,48109.0,True,True,-0.13993766,-0.07319492,-0.98745078,0.9999995439612411,0.0,0.0,0.0,-1.3729310000000001,0.7158854499999999,9.67916355,31.9
81470.80424987,81470.804233199,0.01667099422775209,48119.0,True,True,-0.13993766,-0.07319492,-0.98745078,0.9999995439612411,0.0,0.0,0.0,-1.3729310000000001,0.7060787999999999,9.6889702,31.9
81470.814580035,81470.814353925,0.2261100016767159,48129.0,True,True,-0.13993766,-0.07319492,-0.98745078,0.9999995439612411,0.0,0.0,0.0,-1.36312435,0.7158854499999999,9.669356899999999,31.9
81470.824891907,81470.824454448,0.4374590062070638,48139.0,True,True,-0.13993766,-0.07319492,-0.98745078,0.9999995439612411,0.0,0.0,0.0,-1.36312435,0.7060787999999999,9.6889702,31.9
81470.835236331,81470.834256452,0.9798789978958666,48149.0,True,True,-0.13993766,-0.07319492,-0.98745078,0.9999995439612411,0.0,0.0,0.0,-1.3729310000000001,0.7158854499999999,9.6889702,31.8
81470.845581467,81470.844449395,1.1320720077492297,48159.0,True,True,-0.13993766,-0.07319492,-0.98745078,0.9999995439612411,0.0,0.0,0.0,-1.36312435,0.7158854499999999,9.67916355,31.8
81470.855941067,81470.85428061,1.6604569973424077,48169.0,True,True,-0.13993766,-0.07319492,-0.98745078,0.9999995439612411,0.0,0.0,0.0,-1.36312435,0.7158854499999999,9.6889702,31.8
81470.866331507,81470.864378176,1.9533309969119728,48179.0,True,True,-0.13993766,-0.07319492,-0.98745078,0.9999995439612411,0.0,0.0,0.0,-1.36312435,0.7256921,9.6889702,31.8
81470.874610179,81470.874297027,0.3131520061288029,48189.0,True,True,-0.13993766,-0.07319492,-0.98745078,0.9999995439612411,0.0,0.0,0.0,-1.3827376499999997,0.7158854499999999,9.67916355,31.9
81470.884948921,81470.884495463,0.4534579929895699,48199.0,True,True,-0.13993766,-0.07319492,-0.98745078,0.9999995439612411,0.0,0.0,0.0,-1.3729310000000001,0.7256921,9.67916355,31.8
81470.895247715,81470.894303285,0.9444300085306168,48209.0,True,True,-0.13993766,-0.07319492,-0.98745078,0.9999995439612411,0.0,0.0,0.0,-1.36312435,0.7158854499999999,9.67916355,31.9
81470.905584714,81470.904291839,1.2928749929415062,48219.0,True,True,-0.13993766,-0.07319492,-0.98745078,0.9999995439612411,0.0,0.0,0.0,-1.36312435,0.7256921,9.669356899999999,31.9
81470.915936018,81470.914196195,1.7398230120306835,48229.0,True,True,-0.13993766,-0.07319492,-0.98745078,0.9999995439612411,0.0,0.0,0.0,-1.3827376499999997,0.7158854499999999,9.669356899999999,31.9
81470.926247395,81470.924334797,1.9125979888485745,48239.0,True,True,-0.13993766,-0.07319492,-0.98745078,0.9999995439612411,0.0,0.0,0.0,-1.3729310000000001,0.7256921,9.669356899999999,31.9
81470.934532448,81470.93426042,0.2720279881032184,48249.0,True,True,-0.13993766,-0.07319492,-0.98745078,0.9999995439612411,0.0,0.0,0.0,-1.36312435,0.7060787999999999,9.669356899999999,31.9
81470.944858563,81470.944217639,0.6409240013454109,48259.0,True,True,-0.13993766,-0.07319492,-0.98745078,0.9999995439612411,0.0,0.0,0.0,-1.3729310000000001,0.7158854499999999,9.67916355,31.9
81470.955174168,81470.954374592,0.7995760097401217,48269.0,True,True,-0.13993766,-0.07319492,-0.98745078,0.9999995439612411,0.0,0.0,0.0,-1.3729310000000001,0.7256921,9.669356899999999,31.8
81470.965522796,81470.964317126,1.2056700070388615,48279.0,True,True,-0.13993766,-0.07319492,-0.98745078,0.9999995439612411,0.0,0.0,0.0,-1.36312435,0.7158854499999999,9.6889702,31.8
81470.975909596,81470.97424885,1.660745998378843,48289.0,True,True,-0.13993766,-0.07319492,-0.98745078,0.9999995439612411,0.0,0.0,0.0,-1.3729310000000001,0.7158854499999999,9.659550249999999,31.8
81470.986237213,81470.984289541,1.9476720044622198,48299.0,True,True,-0.13993766,-0.07319492,-0.98745078,0.9999995439612411,0.0,0.0,0.0,-1.3827376499999997,0.7158854499999999,9.669356899999999,31.8
81470.994469937,81470.994368493,0.10144399129785597,48309.0,True,True,-0.13993766,-0.07319492,-0.98745078,0.9999995439612411,0.0,0.0,0.0,-1.3729310000000001,0.7158854499999999,9.669356899999999,31.8
81471.004841405,81471.004321105,0.5202999891480431,48319.0,True,True,-0.13993766,-0.07319492,-0.98745078,0.9999995439612411,0.0,0.0,0.0,-1.3729310000000001,0.7158854499999999,9.669356899999999,31.8
81471.015184372,81471.014338318,0.8460539975203574,48329.0,True,True,-0.13993766,-0.07319492,-0.98745078,0.9999995439612411,0.0,0.0,0.0,-1.3827376499999997,0.7158854499999999,9.67916355,31.8
81471.025538721,81471.024414439,1.1242820037296042,48339.0,True,True,-0.13993766,-0.07319492,-0.98745078,0.9999995439612411,0.0,0.0,0.0,-1.3729310000000001,0.7060787999999999,9.67916355,31.8
81471.035832269,81471.034246136,1.5861330030020326,48349.0,True,True,-0.13993766,-0.07319492,-0.98745078,0.9999995439612411,0.0,0.0,0.0,-1.3729310000000001,0.7158854499999999,9.67916355,31.8
81471.046155612,81471.044280848,1.8747639987850562,48359.0,True,True,-0.13993766,-0.07319492,-0.98745078,0.9999995439612411,0.0,0.0,0.0,-1.3729310000000001,0.7158854499999999,9.67916355,31.8
81471.054443157,81471.054366835,0.07632200140506029,48369.0,True,True,-0.13993766,-0.07319492,-0.98745078,0.9999995439612411,0.0,0.0,0.0,-1.36312435,0.7256921,9.669356899999999,31.8
81471.064802392,81471.064455203,0.3471889940556139,48379.0,True,True,-0.13993766,-0.07319492,-0.98745078,0.9999995439612411,0.0,0.0,0.0,-1.3729310000000001,0.7158854499999999,9.67916355,31.8
81471.075145789,81471.074255427,0.890362003701739,48389.0,True,True,-0.13993766,-0.07319492,-0.98745078,0.9999995439612411,0.0,0.0,0.0,-1.3827376499999997,0.7158854499999999,9.67916355,31.8
81471.085485667,81471.084276765,1.208902001962997,48399.0,True,True,-0.13993766,-0.07319492,-0.98745078,0.9999995439612411,0.0,0.0,0.0,-1.36312435,0.7158854499999999,9.669356899999999,31.8
81471.09578207,81471.094299761,1.4823090023128316,48409.0,True,True,-0.13993766,-0.07319492,-0.98745078,0.9999995439612411,0.0,0.0,0.0,-1.36312435,0.7158854499999999,9.6889702,31.8
81471.106132783,81471.104308637,1.82414599112235,48419.0,True,True,-0.13993766,-0.07319492,-0.98745078,0.9999995439612411,0.0,0.0,0.0,-1.36312435,0.7256921,9.67916355,31.8
81471.114369025,81471.11426336,0.10566500714048743,48429.0,True,True,-0.13993766,-0.07319492,-0.98745078,0.9999995439612411,0.0,0.0,0.0,-1.3729310000000001,0.7158854499999999,9.67916355,31.8
81471.124716664,81471.124249747,0.4669170011766255,48439.0,True,True,-0.13993766,-0.07319492,-0.98745078,0.9999995439612411,0.0,0.0,0.0,-1.3729310000000001,0.7060787999999999,9.669356899999999,31.8
81471.135098408,81471.134305031,0.7933770102681592,48449.0,True,True,-0.13993766,-0.07319492,-0.98745078,0.9999995439612411,0.0,0.0,0.0,-1.3729310000000001,0.7158854499999999,9.67916355,31.9
81471.145403095,81471.144245742,1.1573529918678105,48459.0,True,True,-0.13993766,-0.07319492,-0.98745078,0.9999995439612411,0.0,0.0,0.0,-1.3533177,0.7158854499999999,9.669356899999999,31.8
81471.155693569,81471.154269576,1.423993002390489,48469.0,True,True,-0.13993766,-0.07319492,-0.98745078,0.9999995439612411,0.0,0.0,0.0,-1.3729310000000001,0.7060787999999999,9.67916355,31.8
81471.166086451,81471.164414312,1.6721389984013513,48479.0,True,True,-0.13993766,-0.07319492,-0.98745078,0.9999995439612411,0.0,0.0,0.0,-1.3827376499999997,0.7158854499999999,9.67916355,31.8
81471.174396419,81471.174282506,0.11391298903618008,48489.0,True,True,-0.13993766,-0.07319492,-0.98745078,0.9999995439612411,0.0,0.0,0.0,-1.3729310000000001,0.7256921,9.669356899999999,31.8
81471.184703276,81471.184288166,0.41511000017635524,48499.0,True,True,-0.13993766,-0.07319492,-0.98745078,0.9999995439612411,0.0,0.0,0.0,-1.3729310000000001,0.7158854499999999,9.67916355,31.8
81471.195053181,81471.19445133,0.6018510030116886,48509.0,True,True,-0.13993766,-0.07319492,-0.98745078,0.9999995439612411,0.0,0.0,0.0,-1.36312435,0.7158854499999999,9.669356899999999,31.8
81471.205375899,81471.204342068,1.0338309948565438,48519.0,True,True,-0.13993766,-0.07319492,-0.98745078,0.9999995439612411,0.0,0.0,0.0,-1.3729310000000001,0.7158854499999999,9.6889702,31.9
81471.215670917,81471.214213998,1.4569189952453598,48529.0,True,True,-0.13993766,-0.07319492,-0.98745078,0.9999995439612411,0.0,0.0,0.0,-1.3729310000000001,0.7256921,9.67916355,31.9
81471.225970927,81471.224361869,1.6090580029413104,48539.0,True,True,-0.13993766,-0.07319492,-0.98745078,0.9999995439612411,0.0,0.0,0.0,-1.36312435,0.7256921,9.669356899999999,31.9
81471.236359597,81471.234363057,1.9965399987995625,48549.0,True,True,-0.13993766,-0.07319492,-0.98745078,0.9999995439612411,0.0,0.0,0.0,-1.3729310000000001,0.7158854499999999,9.67916355,31.8
81471.244616923,81471.244167749,0.44917399645783007,48559.0,True,True,-0.13993766,-0.07319492,-0.98745078,0.9999995439612411,0.0,0.0,0.0,-1.3729310000000001,0.7158854499999999,9.6889702,31.8
81471.254908855,81471.254285815,0.6230400031199679,48569.0,True,True,-0.13993766,-0.07319492,-0.98745078,0.9999995439612411,0.0,0.0,0.0,-1.3827376499999997,0.7060787999999999,9.67916355,31.8
81471.265221306,81471.264294305,0.927001005038619,48579.0,True,True,-0.13993766,-0.07319492,-0.98745078,0.9999995439612411,0.0,0.0,0.0,-1.3729310000000001,0.7158854499999999,9.67916355,31.9
81471.275545802,81471.274272716,1.2730860034935176,48589.0,True,True,-0.13993766,-0.07319492,-0.98745078,0.9999995439612411,0.0,0.0,0.0,-1.36312435,0.7256921,9.67916355,31.8
81471.28588433,81471.284252411,1.6319190035574138,48599.0,True,True,-0.13993766,-0.07319492,-0.98745078,0.9999995439612411,0.0,0.0,0.0,-1.36312435,0.7158854499999999,9.6889702,31.8
81471.296275106,81471.294319744,1.9553619931684807,48609.0,True,True,-0.13993766,-0.07319492,-0.98745078,0.9999995439612411,0.0,0.0,0.0,-1.3729310000000001,0.7158854499999999,9.6889702,31.8
81471.304532908,81471.304342141,0.19076700846198946,48619.0,True,True,-0.13993766,-0.07319492,-0.98745078,0.9999995439612411,0.0,0.0,0.0,-1.3729310000000001,0.7060787999999999,9.67916355,31.8
81471.314873647,81471.314235078,0.6385690066963434,48629.0,True,True,-0.13993766,-0.07319492,-0.98745078,0.9999995439612411,0.0,0.0,0.0,-1.36312435,0.7158854499999999,9.669356899999999,31.8
81471.325248347,81471.324356005,0.8923419954953715,48639.0,True,True,-0.13993766,-0.07319492,-0.98745078,0.9999995439612411,0.0,0.0,0.0,-1.36312435,0.7060787999999999,9.669356899999999,31.8
81471.335596933,81471.334368408,1.2285249977139756,48649.0,True,True,-0.13993766,-0.07319492,-0.98745078,0.9999995439612411,0.0,0.0,0.0,-1.3729310000000001,0.7158854499999999,9.669356899999999,31.9
81471.345965218,81471.344288565,1.6766530025051907,48659.0,True,True,-0.13993766,-0.07319492,-0.98745078,0.9999995439612411,0.0,0.0,0.0,-1.36312435,0.7158854499999999,9.67916355,31.9
